"","sub","game","Screen","rt","trial","Object.Name","sp","left.column","right.column","rt.out","left.response","right.response","answer","response","switch","payoff"
"6",7322032,"lottery","trial",10032.0980000119,1,"left",14,"14.png","15soloseacaso.png",1,"SP","UP","SP",0,0,14
"8",7322032,"lottery","trial",10177.992,2,"left",5,"5.png","15soloseacaso.png",1,"SP","UP","SP",0,1,5
"10",7322032,"lottery","trial",5202.761,3,"left",2,"15soloseacaso.png","2.png",0,"UP","SP","UP",1,0,7.5
"12",7322032,"lottery","trial",3799.00800001192,4,"left",12,"12.png","15soloseacaso.png",0,"SP","UP","SP",0,0,12
"14",7322032,"lottery","trial",1694.34499999403,5,"right",7,"15soloseacaso.png","7.png",0,"UP","SP","SP",0,0,7
"16",7322032,"lottery","trial",1369.58000000002,6,"right",11,"15soloseacaso.png","11.png",0,"UP","SP","SP",0,0,11
"18",7322032,"lottery","trial",3047.09500001192,7,"left",8,"15soloseacaso.png","8.png",0,"UP","SP","UP",1,1,7.5
"20",7322032,"lottery","trial",1460.94699999403,8,"right",3,"15soloseacaso.png","3.png",0,"UP","SP","SP",0,1,3
"22",7322032,"lottery","trial",2102.94800001192,9,"left",1,"15soloseacaso.png","1.png",0,"UP","SP","UP",1,NA,7.5
"24",7322032,"lottery","trial",1612.25900000596,10,"right",6,"15soloseacaso.png","6.png",0,"UP","SP","SP",0,0,6
"26",7322032,"lottery","trial",1218.314,11,"left",13,"13.png","15soloseacaso.png",0,"SP","UP","SP",0,0,13
"28",7322032,"lottery","trial",1091.00700000596,12,"right",15,"15soloseacaso.png","15.png",0,"UP","SP","SP",0,0,15
"30",7322032,"lottery","trial",1369.59400000001,13,"right",10,"15soloseacaso.png","10.png",0,"UP","SP","SP",0,0,10
"32",7322032,"lottery","trial",2060.56099999404,14,"right",4,"4.png","15soloseacaso.png",0,"SP","UP","UP",1,1,7.5
"34",7322032,"lottery","trial",1025.98699999999,15,"right",9,"15soloseacaso.png","9.png",0,"UP","SP","SP",0,1,9
"39",7322032,"coordination","trial",3264.36099998807,1,"left",14,"14.png","15soloseinsieme.png",0,"SP","UP","SP",0,0,14
"41",7322032,"coordination","trial",3816.70899999404,2,"left",2,"15soloseinsieme.png","2.png",0,"UP","SP","UP",1,0,11.8085106382979
"43",7322032,"coordination","trial",1500.54699999404,3,"right",13,"15soloseinsieme.png","13.png",0,"UP","SP","SP",0,0,13
"45",7322032,"coordination","trial",1293.826,4,"left",11,"11.png","15soloseinsieme.png",0,"SP","UP","SP",0,0,11
"47",7322032,"coordination","trial",1077.75299999405,5,"right",8,"15soloseinsieme.png","8.png",0,"UP","SP","SP",0,0,8
"49",7322032,"coordination","trial",1109.83099998807,6,"left",9,"9.png","15soloseinsieme.png",0,"SP","UP","SP",0,0,9
"51",7322032,"coordination","trial",1302.75800000002,7,"left",5,"5.png","15soloseinsieme.png",0,"SP","UP","SP",0,1,5
"53",7322032,"coordination","trial",1259.08900000001,8,"left",15,"15.png","15soloseinsieme.png",0,"SP","UP","SP",0,0,15
"55",7322032,"coordination","trial",1753.73800000001,9,"left",4,"15soloseinsieme.png","4.png",0,"UP","SP","UP",1,0,10.7712765957447
"57",7322032,"coordination","trial",1149.60400000596,10,"left",12,"12.png","15soloseinsieme.png",0,"SP","UP","SP",0,0,12
"59",7322032,"coordination","trial",916.060999988083,11,"right",10,"15soloseinsieme.png","10.png",0,"UP","SP","SP",0,0,10
"61",7322032,"coordination","trial",1133.24600000595,12,"left",6,"6.png","15soloseinsieme.png",0,"SP","UP","SP",0,0,6
"63",7322032,"coordination","trial",1135.63100000596,13,"left",1,"15soloseinsieme.png","1.png",0,"UP","SP","UP",1,NA,12.0478723404255
"65",7322032,"coordination","trial",1484.80999998807,14,"right",3,"3.png","15soloseinsieme.png",0,"SP","UP","UP",1,0,10.8510638297872
"67",7322032,"coordination","trial",1202.58300000001,15,"left",7,"7.png","15soloseinsieme.png",0,"SP","UP","SP",0,0,7
"72",7322032,"competition","trial",3700.182,1,"left",5,"5.png","15solosesoli.png",0,"SP","UP","SP",0,0,5
"74",7322032,"competition","trial",1667.50499999404,2,"left",14,"14.png","15solosesoli.png",0,"SP","UP","SP",0,0,14
"76",7322032,"competition","trial",1335.28400000001,3,"right",3,"3.png","15solosesoli.png",0,"SP","UP","UP",1,1,5.74468085106383
"78",7322032,"competition","trial",1334.52600001192,4,"left",8,"8.png","15solosesoli.png",0,"SP","UP","SP",0,0,8
"80",7322032,"competition","trial",1880.35499998808,5,"right",7,"15solosesoli.png","7.png",0,"UP","SP","SP",0,0,7
"82",7322032,"competition","trial",1100.21800001193,6,"left",4,"4.png","15solosesoli.png",0,"SP","UP","SP",0,1,4
"84",7322032,"competition","trial",1059.49200001193,7,"right",13,"15solosesoli.png","13.png",0,"UP","SP","SP",0,0,13
"86",7322032,"competition","trial",1603.43400000001,8,"right",1,"1.png","15solosesoli.png",0,"SP","UP","UP",1,NA,5.50531914893617
"88",7322032,"competition","trial",1519.91199999998,9,"right",6,"15solosesoli.png","6.png",0,"UP","SP","SP",0,0,6
"90",7322032,"competition","trial",1318.90899999405,10,"right",15,"15solosesoli.png","15.png",0,"UP","SP","SP",0,0,15
"92",7322032,"competition","trial",1143.21800001193,11,"left",11,"11.png","15solosesoli.png",0,"SP","UP","SP",0,0,11
"94",7322032,"competition","trial",1350.69899999403,12,"left",10,"10.png","15solosesoli.png",0,"SP","UP","SP",0,0,10
"96",7322032,"competition","trial",1076.23500000595,13,"left",12,"12.png","15solosesoli.png",0,"SP","UP","SP",0,0,12
"98",7322032,"competition","trial",1099.50899998809,14,"left",9,"9.png","15solosesoli.png",0,"SP","UP","SP",0,0,9
"100",7322032,"competition","trial",2103.78299998809,15,"right",2,"15solosesoli.png","2.png",0,"UP","SP","SP",0,1,2
"107",7322046,"coordination","trial",4704.539,1,"left",15,"15soloseinsieme.png","15.png",0,"UP","SP","UP",1,1,3.59042553191489
"109",7322046,"coordination","trial",2154.46,2,"left",14,"14.png","15soloseinsieme.png",0,"SP","UP","SP",0,0,14
"111",7322046,"coordination","trial",1693.80400000037,3,"right",13,"15soloseinsieme.png","13.png",0,"UP","SP","SP",0,0,13
"113",7322046,"coordination","trial",2029.48000000075,4,"right",10,"15soloseinsieme.png","10.png",0,"UP","SP","SP",0,0,10
"115",7322046,"coordination","trial",1999.56700000056,5,"right",9,"15soloseinsieme.png","9.png",0,"UP","SP","SP",0,0,9
"117",7322046,"coordination","trial",3107.273,6,"right",7,"7.png","15soloseinsieme.png",0,"SP","UP","UP",1,1,7.42021276595745
"119",7322046,"coordination","trial",2286.00100000037,7,"left",8,"8.png","15soloseinsieme.png",0,"SP","UP","SP",0,1,8
"121",7322046,"coordination","trial",2839.351,8,"left",1,"15soloseinsieme.png","1.png",0,"UP","SP","UP",1,NA,12.0478723404255
"123",7322046,"coordination","trial",2279.321,9,"left",3,"3.png","15soloseinsieme.png",0,"SP","UP","SP",0,0,3
"125",7322046,"coordination","trial",1726.83100000056,10,"left",12,"12.png","15soloseinsieme.png",0,"SP","UP","SP",0,0,12
"127",7322046,"coordination","trial",2822.61000000001,11,"left",5,"15soloseinsieme.png","5.png",0,"UP","SP","UP",1,0,9.8936170212766
"129",7322046,"coordination","trial",2137.889,12,"left",6,"6.png","15soloseinsieme.png",0,"SP","UP","SP",0,1,6
"131",7322046,"coordination","trial",1952.92,13,"left",2,"2.png","15soloseinsieme.png",0,"SP","UP","SP",0,1,2
"133",7322046,"coordination","trial",1428.58500000019,14,"left",11,"11.png","15soloseinsieme.png",0,"SP","UP","SP",0,0,11
"135",7322046,"coordination","trial",3674.51,15,"left",4,"15soloseinsieme.png","4.png",0,"UP","SP","UP",1,1,10.7712765957447
"140",7322046,"competition","trial",2270.75700000019,1,"right",10,"15solosesoli.png","10.png",0,"UP","SP","SP",0,1,10
"142",7322046,"competition","trial",1570.02799999999,2,"left",14,"14.png","15solosesoli.png",0,"SP","UP","SP",0,0,14
"144",7322046,"competition","trial",1592.734,3,"left",6,"15solosesoli.png","6.png",0,"UP","SP","UP",1,0,7.42021276595745
"146",7322046,"competition","trial",1737.033,4,"left",12,"12.png","15solosesoli.png",0,"SP","UP","SP",0,0,12
"148",7322046,"competition","trial",1451.31800000074,5,"left",3,"15solosesoli.png","3.png",0,"UP","SP","UP",1,0,5.74468085106383
"150",7322046,"competition","trial",1342.70400000019,6,"left",7,"7.png","15solosesoli.png",0,"SP","UP","SP",0,1,7
"152",7322046,"competition","trial",1243.21100000037,7,"left",8,"8.png","15solosesoli.png",0,"SP","UP","SP",0,0,8
"154",7322046,"competition","trial",1534.72199999999,8,"right",15,"15solosesoli.png","15.png",0,"UP","SP","SP",0,0,15
"156",7322046,"competition","trial",1653.51999999999,9,"right",5,"5.png","15solosesoli.png",0,"SP","UP","UP",1,0,7.26063829787234
"158",7322046,"competition","trial",2872.78699999998,10,"right",1,"15solosesoli.png","1.png",0,"UP","SP","SP",0,NA,1
"160",7322046,"competition","trial",1378.75800000055,11,"left",13,"13.png","15solosesoli.png",0,"SP","UP","SP",0,0,13
"162",7322046,"competition","trial",2177.58200000056,12,"left",9,"15solosesoli.png","9.png",0,"UP","SP","UP",1,1,9.73404255319149
"164",7322046,"competition","trial",2786.577,13,"right",2,"2.png","15solosesoli.png",0,"SP","UP","UP",1,1,5.42553191489362
"166",7322046,"competition","trial",1386.21000000001,14,"right",11,"15solosesoli.png","11.png",0,"UP","SP","SP",0,0,11
"168",7322046,"competition","trial",2595.62000000037,15,"left",4,"15solosesoli.png","4.png",0,"UP","SP","UP",1,0,6.1436170212766
"173",7322046,"lottery","trial",2531.15300000018,1,"right",14,"15soloseacaso.png","14.png",0,"UP","SP","SP",0,0,14
"175",7322046,"lottery","trial",2129.74100000037,2,"right",1,"1.png","15soloseacaso.png",0,"SP","UP","UP",1,NA,7.5
"177",7322046,"lottery","trial",2204.56100000002,3,"right",9,"15soloseacaso.png","9.png",0,"UP","SP","SP",0,0,9
"179",7322046,"lottery","trial",1536.11400000055,4,"left",7,"7.png","15soloseacaso.png",0,"SP","UP","SP",0,0,7
"181",7322046,"lottery","trial",1343.13300000055,5,"right",15,"15.png","15soloseacaso.png",0,"SP","UP","UP",1,1,7.5
"183",7322046,"lottery","trial",2922.94600000001,6,"left",5,"5.png","15soloseacaso.png",0,"SP","UP","SP",0,1,5
"185",7322046,"lottery","trial",1737.073,7,"right",4,"4.png","15soloseacaso.png",0,"SP","UP","UP",1,0,7.5
"187",7322046,"lottery","trial",1536.56599999999,8,"right",10,"15soloseacaso.png","10.png",0,"UP","SP","SP",0,0,10
"189",7322046,"lottery","trial",1386.287,9,"right",13,"15soloseacaso.png","13.png",0,"UP","SP","SP",0,0,13
"191",7322046,"lottery","trial",1835.11700000074,10,"left",6,"6.png","15soloseacaso.png",0,"SP","UP","SP",0,0,6
"193",7322046,"lottery","trial",1511.49800000075,11,"left",3,"15soloseacaso.png","3.png",0,"UP","SP","UP",1,0,7.5
"195",7322046,"lottery","trial",1436.31100000037,12,"left",8,"8.png","15soloseacaso.png",0,"SP","UP","SP",0,0,8
"197",7322046,"lottery","trial",1306.8430000002,13,"right",12,"15soloseacaso.png","12.png",0,"UP","SP","SP",0,0,12
"199",7322046,"lottery","trial",1201.90900000019,14,"left",11,"11.png","15soloseacaso.png",0,"SP","UP","SP",0,0,11
"201",7322046,"lottery","trial",1776.99000000019,15,"right",2,"2.png","15soloseacaso.png",0,"SP","UP","UP",1,0,7.5
"208",7322030,"competition","trial",2498.86300000298,1,"left",6,"15solosesoli.png","6.png",0,"UP","SP","UP",1,1,7.42021276595745
"210",7322030,"competition","trial",4281.58199999404,2,"right",13,"15solosesoli.png","13.png",0,"UP","SP","SP",0,0,13
"212",7322030,"competition","trial",6394.97499999702,3,"left",14,"14.png","15solosesoli.png",0,"SP","UP","SP",0,0,14
"214",7322030,"competition","trial",2670.15899999404,4,"right",10,"15solosesoli.png","10.png",0,"UP","SP","SP",0,0,10
"216",7322030,"competition","trial",1703.01399999702,5,"right",3,"3.png","15solosesoli.png",0,"SP","UP","UP",1,0,5.74468085106383
"218",7322030,"competition","trial",4057.556,6,"right",5,"15solosesoli.png","5.png",0,"UP","SP","SP",0,1,5
"220",7322030,"competition","trial",8042.831,7,"left",15,"15solosesoli.png","15.png",1,"UP","SP","UP",1,1,10.7712765957447
"222",7322030,"competition","trial",4342.56600000001,8,"right",12,"15solosesoli.png","12.png",0,"UP","SP","SP",0,0,12
"224",7322030,"competition","trial",5193.5,9,"right",4,"4.png","15solosesoli.png",0,"SP","UP","UP",1,0,6.1436170212766
"226",7322030,"competition","trial",8393.86800000298,10,"left",7,"15solosesoli.png","7.png",1,"UP","SP","UP",1,0,8.13829787234043
"228",7322030,"competition","trial",2505.549,11,"right",2,"2.png","15solosesoli.png",0,"SP","UP","UP",1,0,5.42553191489362
"230",7322030,"competition","trial",1469.63199999405,12,"right",1,"1.png","15solosesoli.png",0,"SP","UP","UP",1,NA,5.50531914893617
"232",7322030,"competition","trial",1392.89400000298,13,"left",11,"11.png","15solosesoli.png",0,"SP","UP","SP",0,0,11
"234",7322030,"competition","trial",1551.17200000001,14,"right",9,"15solosesoli.png","9.png",0,"UP","SP","SP",0,1,9
"236",7322030,"competition","trial",1451.20199999106,15,"left",8,"15solosesoli.png","8.png",0,"UP","SP","UP",1,0,8.93617021276596
"241",7322030,"lottery","trial",22096.235999994,1,"left",10,"10.png","15soloseacaso.png",1,"SP","UP","SP",0,0,10
"243",7322030,"lottery","trial",4747.83600000298,2,"right",2,"2.png","15soloseacaso.png",0,"SP","UP","UP",1,0,7.5
"245",7322030,"lottery","trial",1850.53899999105,3,"left",7,"15soloseacaso.png","7.png",0,"UP","SP","UP",1,0,7.5
"247",7322030,"lottery","trial",1408.28599999999,4,"left",12,"12.png","15soloseacaso.png",0,"SP","UP","SP",0,0,12
"249",7322030,"lottery","trial",1920.71699999999,5,"right",14,"14.png","15soloseacaso.png",0,"SP","UP","UP",1,1,7.5
"251",7322030,"lottery","trial",1561.37100000298,6,"left",5,"15soloseacaso.png","5.png",0,"UP","SP","UP",1,1,7.5
"253",7322030,"lottery","trial",1252.621,7,"left",11,"11.png","15soloseacaso.png",0,"SP","UP","SP",0,0,11
"255",7322030,"lottery","trial",1417.87599999404,8,"right",3,"3.png","15soloseacaso.png",0,"SP","UP","UP",1,0,7.5
"257",7322030,"lottery","trial",1516.27599999106,9,"left",1,"15soloseacaso.png","1.png",0,"UP","SP","UP",1,NA,7.5
"259",7322030,"lottery","trial",1300.87800000299,10,"right",9,"15soloseacaso.png","9.png",0,"UP","SP","SP",0,0,9
"261",7322030,"lottery","trial",1135.70700000002,11,"right",8,"15soloseacaso.png","8.png",0,"UP","SP","SP",0,1,8
"263",7322030,"lottery","trial",1235.90400000004,12,"left",13,"13.png","15soloseacaso.png",0,"SP","UP","SP",0,0,13
"265",7322030,"lottery","trial",1101.94999999405,13,"right",4,"15soloseacaso.png","4.png",0,"UP","SP","SP",0,1,4
"267",7322030,"lottery","trial",1744.81399999405,14,"left",15,"15.png","15soloseacaso.png",0,"SP","UP","SP",0,1,15
"269",7322030,"lottery","trial",1802.35499999105,15,"right",6,"6.png","15soloseacaso.png",0,"SP","UP","UP",1,0,7.5
"274",7322030,"coordination","trial",2062.86199999106,1,"right",3,"3.png","15soloseinsieme.png",0,"SP","UP","UP",1,0,10.8510638297872
"276",7322030,"coordination","trial",3206.89199999999,2,"left",9,"9.png","15soloseinsieme.png",0,"SP","UP","SP",0,0,9
"278",7322030,"coordination","trial",1535.56799999703,3,"right",1,"1.png","15soloseinsieme.png",0,"SP","UP","UP",1,NA,12.0478723404255
"280",7322030,"coordination","trial",1577.77999999703,4,"left",12,"12.png","15soloseinsieme.png",0,"SP","UP","SP",0,0,12
"282",7322030,"coordination","trial",1987.679,5,"left",15,"15.png","15soloseinsieme.png",0,"SP","UP","SP",0,0,15
"284",7322030,"coordination","trial",1351.39499999999,6,"right",6,"6.png","15soloseinsieme.png",0,"SP","UP","UP",1,0,9.41489361702128
"286",7322030,"coordination","trial",1193.39299999701,7,"right",14,"15soloseinsieme.png","14.png",0,"UP","SP","SP",0,0,14
"288",7322030,"coordination","trial",2179.34099999105,8,"left",5,"15soloseinsieme.png","5.png",0,"UP","SP","UP",1,0,9.8936170212766
"290",7322030,"coordination","trial",2147.30600000001,9,"left",11,"11.png","15soloseinsieme.png",0,"SP","UP","SP",0,0,11
"292",7322030,"coordination","trial",1328.304,10,"right",4,"4.png","15soloseinsieme.png",0,"SP","UP","UP",1,0,10.7712765957447
"294",7322030,"coordination","trial",1375.99699999404,11,"right",7,"7.png","15soloseinsieme.png",0,"SP","UP","UP",1,0,7.42021276595745
"296",7322030,"coordination","trial",1259.14400000297,12,"right",2,"2.png","15soloseinsieme.png",0,"SP","UP","UP",1,0,11.8085106382979
"298",7322030,"coordination","trial",1419.69099999999,13,"left",8,"8.png","15soloseinsieme.png",0,"SP","UP","SP",0,1,8
"300",7322030,"coordination","trial",1369.639,14,"left",13,"13.png","15soloseinsieme.png",0,"SP","UP","SP",0,0,13
"302",7322030,"coordination","trial",1135.74299999999,15,"left",10,"10.png","15soloseinsieme.png",0,"SP","UP","SP",0,0,10
"309",7322033,"coordination","trial",8902.061,1,"left",11,"15soloseinsieme.png","11.png",1,"UP","SP","UP",1,1,5.34574468085106
"311",7322033,"coordination","trial",4518.59500000447,2,"left",13,"13.png","15soloseinsieme.png",0,"SP","UP","SP",0,0,13
"313",7322033,"coordination","trial",2547.21000000298,3,"left",4,"4.png","15soloseinsieme.png",0,"SP","UP","SP",0,1,4
"315",7322033,"coordination","trial",2906.189,4,"right",6,"6.png","15soloseinsieme.png",0,"SP","UP","UP",1,1,9.41489361702128
"317",7322033,"coordination","trial",2722.45700000001,5,"left",9,"15soloseinsieme.png","9.png",0,"UP","SP","UP",1,1,6.46276595744681
"319",7322033,"coordination","trial",1418.69500000596,6,"right",5,"15soloseinsieme.png","5.png",0,"UP","SP","SP",0,0,5
"321",7322033,"coordination","trial",1703.57200000001,7,"left",8,"8.png","15soloseinsieme.png",0,"SP","UP","SP",0,0,8
"323",7322033,"coordination","trial",1519.86300000001,8,"left",14,"15soloseinsieme.png","14.png",0,"UP","SP","UP",1,1,3.11170212765957
"325",7322033,"coordination","trial",3450.6320000015,9,"right",12,"15soloseinsieme.png","12.png",0,"UP","SP","SP",0,1,12
"327",7322033,"coordination","trial",2537.38000000149,10,"left",15,"15.png","15soloseinsieme.png",0,"SP","UP","SP",0,1,15
"329",7322033,"coordination","trial",2184.06400000596,11,"left",3,"15soloseinsieme.png","3.png",0,"UP","SP","UP",1,0,10.8510638297872
"331",7322033,"coordination","trial",1903.33199999999,12,"left",7,"7.png","15soloseinsieme.png",0,"SP","UP","SP",0,1,7
"333",7322033,"coordination","trial",2217.54300000149,13,"left",1,"15soloseinsieme.png","1.png",0,"UP","SP","UP",1,NA,12.0478723404255
"335",7322033,"coordination","trial",1880.764,14,"right",2,"2.png","15soloseinsieme.png",0,"SP","UP","UP",1,0,11.8085106382979
"337",7322033,"coordination","trial",1217.939,15,"right",10,"15soloseinsieme.png","10.png",0,"UP","SP","SP",0,1,10
"342",7322033,"lottery","trial",2045.003,1,"left",8,"8.png","15soloseacaso.png",0,"SP","UP","SP",0,0,8
"344",7322033,"lottery","trial",1158.23600000149,2,"left",10,"10.png","15soloseacaso.png",0,"SP","UP","SP",0,0,10
"346",7322033,"lottery","trial",1152.459,3,"right",7,"15soloseacaso.png","7.png",0,"UP","SP","SP",0,0,7
"348",7322033,"lottery","trial",1185.92700000001,4,"right",9,"15soloseacaso.png","9.png",0,"UP","SP","SP",0,0,9
"350",7322033,"lottery","trial",1510.95200000149,5,"left",6,"6.png","15soloseacaso.png",0,"SP","UP","SP",0,0,6
"352",7322033,"lottery","trial",1194.67300000149,6,"left",5,"5.png","15soloseacaso.png",0,"SP","UP","SP",0,0,5
"354",7322033,"lottery","trial",1580.558,7,"right",4,"15soloseacaso.png","4.png",0,"UP","SP","SP",0,1,4
"356",7322033,"lottery","trial",2177.81700000596,8,"left",3,"15soloseacaso.png","3.png",0,"UP","SP","UP",1,1,7.5
"358",7322033,"lottery","trial",1536.678,9,"right",12,"15soloseacaso.png","12.png",0,"UP","SP","SP",0,0,12
"360",7322033,"lottery","trial",2304.03300000298,10,"right",2,"15soloseacaso.png","2.png",0,"UP","SP","SP",0,1,2
"362",7322033,"lottery","trial",1801.33700000597,11,"right",13,"15soloseacaso.png","13.png",0,"UP","SP","SP",0,0,13
"364",7322033,"lottery","trial",1142.126,12,"right",11,"15soloseacaso.png","11.png",0,"UP","SP","SP",0,0,11
"366",7322033,"lottery","trial",1602.79500000596,13,"right",1,"1.png","15soloseacaso.png",0,"SP","UP","UP",1,NA,7.5
"368",7322033,"lottery","trial",1212.97200000596,14,"right",14,"15soloseacaso.png","14.png",0,"UP","SP","SP",0,0,14
"370",7322033,"lottery","trial",2093.94,15,"right",15,"15soloseacaso.png","15.png",0,"UP","SP","SP",0,0,15
"375",7322033,"competition","trial",1368.62600000447,1,"right",6,"15solosesoli.png","6.png",0,"UP","SP","SP",0,0,6
"377",7322033,"competition","trial",1200.24600000595,2,"left",3,"3.png","15solosesoli.png",0,"SP","UP","SP",0,0,3
"379",7322033,"competition","trial",1216.41200000001,3,"left",1,"1.png","15solosesoli.png",0,"SP","UP","SP",0,NA,1
"381",7322033,"competition","trial",1686.94,4,"right",14,"15solosesoli.png","14.png",0,"UP","SP","SP",0,0,14
"383",7322033,"competition","trial",1493.74300000447,5,"right",12,"15solosesoli.png","12.png",0,"UP","SP","SP",0,0,12
"385",7322033,"competition","trial",1201.886,6,"right",9,"15solosesoli.png","9.png",0,"UP","SP","SP",0,0,9
"387",7322033,"competition","trial",2237.76100000448,7,"right",13,"15solosesoli.png","13.png",0,"UP","SP","SP",0,0,13
"389",7322033,"competition","trial",1620.13700000002,8,"right",4,"4.png","15solosesoli.png",0,"SP","UP","UP",1,1,6.1436170212766
"391",7322033,"competition","trial",1676.42000000001,9,"left",11,"11.png","15solosesoli.png",0,"SP","UP","SP",0,0,11
"393",7322033,"competition","trial",1336.16100000005,10,"left",8,"8.png","15solosesoli.png",0,"SP","UP","SP",0,0,8
"395",7322033,"competition","trial",1367.26600000297,11,"right",15,"15solosesoli.png","15.png",0,"UP","SP","SP",0,0,15
"397",7322033,"competition","trial",1393.87800000448,12,"right",10,"15solosesoli.png","10.png",0,"UP","SP","SP",0,0,10
"399",7322033,"competition","trial",1018.42100000297,13,"right",5,"15solosesoli.png","5.png",0,"UP","SP","SP",0,1,5
"401",7322033,"competition","trial",4626.44900000002,14,"left",2,"2.png","15solosesoli.png",0,"SP","UP","SP",0,0,2
"403",7322033,"competition","trial",1252.70200000002,15,"right",7,"15solosesoli.png","7.png",0,"UP","SP","SP",0,0,7
"410",7322021,"competition","trial",4576.704,1,"left",6,"6.png","15solosesoli.png",0,"SP","UP","SP",0,0,6
"412",7322021,"competition","trial",4084.28100001192,2,"right",14,"15solosesoli.png","14.png",0,"UP","SP","SP",0,0,14
"414",7322021,"competition","trial",1536.038,3,"left",4,"15solosesoli.png","4.png",0,"UP","SP","UP",1,1,6.1436170212766
"416",7322021,"competition","trial",1996.46500000596,4,"left",2,"15solosesoli.png","2.png",0,"UP","SP","UP",1,0,5.42553191489362
"418",7322021,"competition","trial",1243.61000001788,5,"right",8,"15solosesoli.png","8.png",0,"UP","SP","SP",0,0,8
"420",7322021,"competition","trial",1436.38400000001,6,"left",13,"13.png","15solosesoli.png",0,"SP","UP","SP",0,1,13
"422",7322021,"competition","trial",1283.02100000596,7,"right",7,"15solosesoli.png","7.png",0,"UP","SP","SP",0,0,7
"424",7322021,"competition","trial",1803.842,8,"left",10,"10.png","15solosesoli.png",0,"SP","UP","SP",0,0,10
"426",7322021,"competition","trial",1486.501,9,"right",9,"15solosesoli.png","9.png",0,"UP","SP","SP",0,0,9
"428",7322021,"competition","trial",1302.76700000001,10,"left",12,"15solosesoli.png","12.png",0,"UP","SP","UP",1,1,10.8510638297872
"430",7322021,"competition","trial",1135.462,11,"right",3,"15solosesoli.png","3.png",0,"UP","SP","SP",0,1,3
"432",7322021,"competition","trial",1368.341,12,"right",11,"15solosesoli.png","11.png",0,"UP","SP","SP",0,0,11
"434",7322021,"competition","trial",1862.47400002385,13,"left",1,"15solosesoli.png","1.png",0,"UP","SP","UP",1,NA,5.50531914893617
"436",7322021,"competition","trial",25464.359,14,"left",15,"15solosesoli.png","15.png",1,"UP","SP","UP",1,1,10.7712765957447
"438",7322021,"competition","trial",2152.06200002384,15,"left",5,"5.png","15solosesoli.png",0,"SP","UP","SP",0,1,5
"443",7322021,"coordination","trial",1885.158,1,"right",10,"15soloseinsieme.png","10.png",0,"UP","SP","SP",0,0,10
"445",7322021,"coordination","trial",1460.51600002384,2,"right",11,"15soloseinsieme.png","11.png",0,"UP","SP","SP",0,0,11
"447",7322021,"coordination","trial",5712.13400000001,3,"left",15,"15soloseinsieme.png","15.png",0,"UP","SP","UP",1,1,3.59042553191489
"449",7322021,"coordination","trial",1586.22500000001,4,"left",5,"5.png","15soloseinsieme.png",0,"SP","UP","SP",0,0,5
"451",7322021,"coordination","trial",1217.43500001192,5,"right",8,"8.png","15soloseinsieme.png",0,"SP","UP","UP",1,1,7.02127659574468
"453",7322021,"coordination","trial",1828.49400001192,6,"left",13,"15soloseinsieme.png","13.png",0,"UP","SP","UP",1,1,3.67021276595745
"455",7322021,"coordination","trial",1125.348,7,"right",2,"15soloseinsieme.png","2.png",0,"UP","SP","SP",0,1,2
"457",7322021,"coordination","trial",1093.29400000596,8,"left",4,"4.png","15soloseinsieme.png",0,"SP","UP","SP",0,0,4
"459",7322021,"coordination","trial",1160.29900001788,9,"right",9,"15soloseinsieme.png","9.png",0,"UP","SP","SP",0,1,9
"461",7322021,"coordination","trial",1117.01000001788,10,"right",7,"15soloseinsieme.png","7.png",0,"UP","SP","SP",0,1,7
"463",7322021,"coordination","trial",1845.90900001192,11,"right",1,"1.png","15soloseinsieme.png",0,"SP","UP","UP",1,NA,12.0478723404255
"465",7322021,"coordination","trial",1117.61900001788,12,"left",3,"3.png","15soloseinsieme.png",0,"SP","UP","SP",0,0,3
"467",7322021,"coordination","trial",1269.393,13,"left",12,"12.png","15soloseinsieme.png",0,"SP","UP","SP",0,0,12
"469",7322021,"coordination","trial",1209.98300000596,14,"left",14,"14.png","15soloseinsieme.png",0,"SP","UP","SP",0,1,14
"471",7322021,"coordination","trial",1745.50100002384,15,"left",6,"15soloseinsieme.png","6.png",0,"UP","SP","UP",1,1,9.41489361702128
"476",7322021,"lottery","trial",4743.592,1,"left",8,"15soloseacaso.png","8.png",0,"UP","SP","UP",1,1,7.5
"478",7322021,"lottery","trial",1274.97600001193,2,"right",4,"15soloseacaso.png","4.png",0,"UP","SP","SP",0,0,4
"480",7322021,"lottery","trial",1215.84600001787,3,"left",9,"9.png","15soloseacaso.png",0,"SP","UP","SP",0,1,9
"482",7322021,"lottery","trial",1267.57700001787,4,"left",11,"11.png","15soloseacaso.png",0,"SP","UP","SP",0,0,11
"484",7322021,"lottery","trial",1168.28800000597,5,"left",12,"12.png","15soloseacaso.png",0,"SP","UP","SP",0,0,12
"486",7322021,"lottery","trial",7421.59299999999,6,"left",15,"15soloseacaso.png","15.png",1,"UP","SP","UP",1,1,7.5
"488",7322021,"lottery","trial",1468.48900001787,7,"right",3,"15soloseacaso.png","3.png",0,"UP","SP","SP",0,1,3
"490",7322021,"lottery","trial",1017.492,8,"left",14,"14.png","15soloseacaso.png",0,"SP","UP","SP",0,0,14
"492",7322021,"lottery","trial",1251.89600001788,9,"right",2,"2.png","15soloseacaso.png",0,"SP","UP","UP",1,0,7.5
"494",7322021,"lottery","trial",1668.42900000597,10,"left",5,"5.png","15soloseacaso.png",0,"SP","UP","SP",0,0,5
"496",7322021,"lottery","trial",1643.00100001789,11,"right",1,"1.png","15soloseacaso.png",0,"SP","UP","UP",1,NA,7.5
"498",7322021,"lottery","trial",1184.9840000179,12,"left",6,"6.png","15soloseacaso.png",0,"SP","UP","SP",0,0,6
"500",7322021,"lottery","trial",5501.46300001192,13,"right",13,"15soloseacaso.png","13.png",0,"UP","SP","SP",0,0,13
"502",7322021,"lottery","trial",1184.361,14,"left",7,"7.png","15soloseacaso.png",0,"SP","UP","SP",0,0,7
"504",7322021,"lottery","trial",1108.59200001191,15,"left",10,"10.png","15soloseacaso.png",0,"SP","UP","SP",0,0,10
"511",7322023,"competition","trial",1900.95199999926,1,"right",13,"15solosesoli.png","13.png",0,"UP","SP","SP",0,0,13
"513",7322023,"competition","trial",3690.9,2,"right",1,"1.png","15solosesoli.png",0,"SP","UP","UP",1,NA,5.50531914893617
"515",7322023,"competition","trial",1745.295,3,"left",12,"12.png","15solosesoli.png",0,"SP","UP","SP",0,0,12
"517",7322023,"competition","trial",1753.713,4,"right",7,"15solosesoli.png","7.png",0,"UP","SP","SP",0,1,7
"519",7322023,"competition","trial",1702.23899999963,5,"right",9,"15solosesoli.png","9.png",0,"UP","SP","SP",0,0,9
"521",7322023,"competition","trial",1685.65999999888,6,"right",4,"4.png","15solosesoli.png",0,"SP","UP","UP",1,0,6.1436170212766
"523",7322023,"competition","trial",2037.544,7,"right",11,"15solosesoli.png","11.png",0,"UP","SP","SP",0,0,11
"525",7322023,"competition","trial",1948.27199999851,8,"left",6,"15solosesoli.png","6.png",0,"UP","SP","UP",1,1,7.42021276595745
"527",7322023,"competition","trial",1745.86599999963,9,"right",15,"15solosesoli.png","15.png",0,"UP","SP","SP",0,0,15
"529",7322023,"competition","trial",2362.40799999888,10,"right",2,"2.png","15solosesoli.png",0,"SP","UP","UP",1,0,5.42553191489362
"531",7322023,"competition","trial",1578.68999999962,11,"left",5,"5.png","15solosesoli.png",0,"SP","UP","SP",0,1,5
"533",7322023,"competition","trial",1426.58799999963,12,"right",10,"15solosesoli.png","10.png",0,"UP","SP","SP",0,0,10
"535",7322023,"competition","trial",1895.58299999851,13,"left",8,"8.png","15solosesoli.png",0,"SP","UP","SP",0,0,8
"537",7322023,"competition","trial",1619.963,14,"right",3,"3.png","15solosesoli.png",0,"SP","UP","UP",1,0,5.74468085106383
"539",7322023,"competition","trial",1677.62599999925,15,"left",14,"14.png","15solosesoli.png",0,"SP","UP","SP",0,0,14
"544",7322023,"coordination","trial",5271.981,1,"right",15,"15soloseinsieme.png","15.png",0,"UP","SP","SP",0,0,15
"546",7322023,"coordination","trial",3830.696,2,"left",11,"11.png","15soloseinsieme.png",0,"SP","UP","SP",0,1,11
"548",7322023,"coordination","trial",1663.49699999925,3,"left",3,"15soloseinsieme.png","3.png",0,"UP","SP","UP",1,0,10.8510638297872
"550",7322023,"coordination","trial",1466.36199999999,4,"right",14,"15soloseinsieme.png","14.png",0,"UP","SP","SP",0,1,14
"552",7322023,"coordination","trial",1193.84699999963,5,"right",5,"5.png","15soloseinsieme.png",0,"SP","UP","UP",1,0,9.8936170212766
"554",7322023,"coordination","trial",1686.81999999999,6,"left",9,"9.png","15soloseinsieme.png",0,"SP","UP","SP",0,0,9
"556",7322023,"coordination","trial",1518.39599999925,7,"left",13,"15soloseinsieme.png","13.png",0,"UP","SP","UP",1,0,3.67021276595745
"558",7322023,"coordination","trial",1619.09499999962,8,"left",10,"15soloseinsieme.png","10.png",0,"UP","SP","UP",1,1,4.46808510638298
"560",7322023,"coordination","trial",1142.609,9,"right",8,"15soloseinsieme.png","8.png",0,"UP","SP","SP",0,1,8
"562",7322023,"coordination","trial",1269.34399999998,10,"left",7,"15soloseinsieme.png","7.png",0,"UP","SP","UP",1,0,7.42021276595745
"564",7322023,"coordination","trial",1168.72499999925,11,"right",4,"4.png","15soloseinsieme.png",0,"SP","UP","UP",1,0,10.7712765957447
"566",7322023,"coordination","trial",1243.92200000001,12,"left",2,"15soloseinsieme.png","2.png",0,"UP","SP","UP",1,0,11.8085106382979
"568",7322023,"coordination","trial",1436.46399999999,13,"left",6,"15soloseinsieme.png","6.png",0,"UP","SP","UP",1,0,9.41489361702128
"570",7322023,"coordination","trial",1300.10399999963,14,"left",12,"15soloseinsieme.png","12.png",0,"UP","SP","UP",1,1,4.70744680851064
"572",7322023,"coordination","trial",1307.79300000001,15,"left",1,"15soloseinsieme.png","1.png",0,"UP","SP","UP",1,NA,12.0478723404255
"577",7322023,"lottery","trial",2151.87099999962,1,"left",8,"15soloseacaso.png","8.png",0,"UP","SP","UP",1,1,7.5
"579",7322023,"lottery","trial",1784.36699999926,2,"right",12,"15soloseacaso.png","12.png",0,"UP","SP","SP",0,0,12
"581",7322023,"lottery","trial",2016.88199999926,3,"left",4,"15soloseacaso.png","4.png",0,"UP","SP","UP",1,1,7.5
"583",7322023,"lottery","trial",1536.19599999851,4,"left",15,"15.png","15soloseacaso.png",0,"SP","UP","SP",0,0,15
"585",7322023,"lottery","trial",1394.34599999963,5,"left",2,"15soloseacaso.png","2.png",0,"UP","SP","UP",1,0,7.5
"587",7322023,"lottery","trial",1452.62899999926,6,"right",14,"15soloseacaso.png","14.png",0,"UP","SP","SP",0,0,14
"589",7322023,"lottery","trial",1616.076,7,"left",5,"15soloseacaso.png","5.png",0,"UP","SP","UP",1,0,7.5
"591",7322023,"lottery","trial",1419.583,8,"left",11,"11.png","15soloseacaso.png",0,"SP","UP","SP",0,0,11
"593",7322023,"lottery","trial",1742.94199999925,9,"right",6,"6.png","15soloseacaso.png",0,"SP","UP","UP",1,0,7.5
"595",7322023,"lottery","trial",1401.33099999963,10,"left",1,"15soloseacaso.png","1.png",0,"UP","SP","UP",1,NA,7.5
"597",7322023,"lottery","trial",1386.10000000001,11,"left",9,"9.png","15soloseacaso.png",0,"SP","UP","SP",0,1,9
"599",7322023,"lottery","trial",1416.58299999962,12,"left",13,"13.png","15soloseacaso.png",0,"SP","UP","SP",0,0,13
"601",7322023,"lottery","trial",1927.599,13,"right",3,"15soloseacaso.png","3.png",0,"UP","SP","SP",0,1,3
"603",7322023,"lottery","trial",1269.45999999999,14,"left",7,"7.png","15soloseacaso.png",0,"SP","UP","SP",0,1,7
"605",7322023,"lottery","trial",1419.78200000001,15,"right",10,"15soloseacaso.png","10.png",0,"UP","SP","SP",0,0,10
"612",7322034,"competition","trial",7008.43799999963,1,"left",6,"6.png","15solosesoli.png",0,"SP","UP","SP",0,0,6
"614",7322034,"competition","trial",3864.06099999925,2,"right",13,"13.png","15solosesoli.png",0,"SP","UP","UP",1,0,11.1702127659574
"616",7322034,"competition","trial",2436.417,3,"right",12,"12.png","15solosesoli.png",0,"SP","UP","UP",1,0,10.8510638297872
"618",7322034,"competition","trial",1601.8719999985,4,"left",5,"5.png","15solosesoli.png",0,"SP","UP","SP",0,0,5
"620",7322034,"competition","trial",3817.606,5,"left",10,"15solosesoli.png","10.png",0,"UP","SP","UP",1,1,10.9308510638298
"622",7322034,"competition","trial",1384.98199999963,6,"left",2,"2.png","15solosesoli.png",0,"SP","UP","SP",0,0,2
"624",7322034,"competition","trial",1580.17600000001,7,"left",4,"4.png","15solosesoli.png",0,"SP","UP","SP",0,0,4
"626",7322034,"competition","trial",4343.371,8,"right",15,"15solosesoli.png","15.png",0,"UP","SP","SP",0,0,15
"628",7322034,"competition","trial",3840.348,9,"right",14,"15solosesoli.png","14.png",0,"UP","SP","SP",0,1,14
"630",7322034,"competition","trial",1703.64999999999,10,"left",3,"3.png","15solosesoli.png",0,"SP","UP","SP",0,0,3
"632",7322034,"competition","trial",1920.78300000001,11,"left",11,"15solosesoli.png","11.png",0,"UP","SP","UP",1,0,11.1702127659574
"634",7322034,"competition","trial",2304.60799999889,12,"right",9,"15solosesoli.png","9.png",0,"UP","SP","SP",0,1,9
"636",7322034,"competition","trial",1269.345,13,"left",7,"15solosesoli.png","7.png",0,"UP","SP","UP",1,1,8.13829787234043
"638",7322034,"competition","trial",1409.56399999851,14,"left",1,"1.png","15solosesoli.png",0,"SP","UP","SP",0,NA,1
"640",7322034,"competition","trial",1367.022,15,"right",8,"8.png","15solosesoli.png",0,"SP","UP","UP",1,0,8.93617021276596
"645",7322034,"coordination","trial",1426.87299999851,1,"right",1,"1.png","15soloseinsieme.png",0,"SP","UP","UP",1,NA,12.0478723404255
"647",7322034,"coordination","trial",1536.671,2,"left",11,"15soloseinsieme.png","11.png",0,"UP","SP","UP",1,0,5.34574468085106
"649",7322034,"coordination","trial",1595.30999999926,3,"left",7,"15soloseinsieme.png","7.png",0,"UP","SP","UP",1,1,7.42021276595745
"651",7322034,"coordination","trial",2631.28799999962,4,"right",13,"15soloseinsieme.png","13.png",0,"UP","SP","SP",0,0,13
"653",7322034,"coordination","trial",1617.25099999963,5,"left",14,"14.png","15soloseinsieme.png",0,"SP","UP","SP",0,0,14
"655",7322034,"coordination","trial",1651.02899999999,6,"right",3,"3.png","15soloseinsieme.png",0,"SP","UP","UP",1,0,10.8510638297872
"657",7322034,"coordination","trial",1553.11799999999,7,"right",2,"2.png","15soloseinsieme.png",0,"SP","UP","UP",1,0,11.8085106382979
"659",7322034,"coordination","trial",1552.79399999889,8,"right",9,"15soloseinsieme.png","9.png",0,"UP","SP","SP",0,0,9
"661",7322034,"coordination","trial",1336.20899999999,9,"right",6,"15soloseinsieme.png","6.png",0,"UP","SP","SP",0,0,6
"663",7322034,"coordination","trial",1217.40799999925,10,"left",12,"12.png","15soloseinsieme.png",0,"SP","UP","SP",0,1,12
"665",7322034,"coordination","trial",1262.97199999851,11,"left",15,"15.png","15soloseinsieme.png",0,"SP","UP","SP",0,0,15
"667",7322034,"coordination","trial",1068.66499999889,12,"left",5,"5.png","15soloseinsieme.png",0,"SP","UP","SP",0,1,5
"669",7322034,"coordination","trial",1082.97199999851,13,"left",10,"15soloseinsieme.png","10.png",0,"UP","SP","UP",1,1,4.46808510638298
"671",7322034,"coordination","trial",1085.59100000003,14,"left",8,"8.png","15soloseinsieme.png",0,"SP","UP","SP",0,1,8
"673",7322034,"coordination","trial",1518.07899999962,15,"right",4,"4.png","15soloseinsieme.png",0,"SP","UP","UP",1,0,10.7712765957447
"678",7322034,"lottery","trial",2338.10199999888,1,"right",4,"4.png","15soloseacaso.png",0,"SP","UP","UP",1,1,7.5
"680",7322034,"lottery","trial",2280.19299999962,2,"right",15,"15soloseacaso.png","15.png",0,"UP","SP","SP",0,0,15
"682",7322034,"lottery","trial",1819.3739999985,3,"left",3,"3.png","15soloseacaso.png",0,"SP","UP","SP",0,1,3
"684",7322034,"lottery","trial",1443.28499999925,4,"left",6,"15soloseacaso.png","6.png",0,"UP","SP","UP",1,1,7.5
"686",7322034,"lottery","trial",1827.0309999985,5,"right",7,"15soloseacaso.png","7.png",0,"UP","SP","SP",0,1,7
"688",7322034,"lottery","trial",1669.56499999962,6,"right",1,"15soloseacaso.png","1.png",0,"UP","SP","SP",0,NA,1
"690",7322034,"lottery","trial",1720.41000000003,7,"right",2,"2.png","15soloseacaso.png",0,"SP","UP","UP",1,1,7.5
"692",7322034,"lottery","trial",1936.66599999962,8,"left",5,"5.png","15soloseacaso.png",0,"SP","UP","SP",0,1,5
"694",7322034,"lottery","trial",1277.5949999989,9,"right",10,"10.png","15soloseacaso.png",0,"SP","UP","UP",1,0,7.5
"696",7322034,"lottery","trial",1918.79999999999,10,"right",11,"15soloseacaso.png","11.png",0,"UP","SP","SP",0,1,11
"698",7322034,"lottery","trial",1119.02000000002,11,"right",12,"12.png","15soloseacaso.png",0,"SP","UP","UP",1,1,7.5
"700",7322034,"lottery","trial",1586.69299999997,12,"right",14,"15soloseacaso.png","14.png",0,"UP","SP","SP",0,0,14
"702",7322034,"lottery","trial",1610.81099999926,13,"right",13,"15soloseacaso.png","13.png",0,"UP","SP","SP",0,1,13
"704",7322034,"lottery","trial",1510.75999999963,14,"right",9,"9.png","15soloseacaso.png",0,"SP","UP","UP",1,1,7.5
"706",7322034,"lottery","trial",1827.15299999889,15,"left",8,"8.png","15soloseacaso.png",0,"SP","UP","SP",0,0,8
"713",7321895,"coordination","trial",3556.39100003576,1,"right",5,"5.png","15soloseinsieme.png",0,"SP","UP","UP",1,0,9.8936170212766
"715",7321895,"coordination","trial",2839.35300000001,2,"right",11,"15soloseinsieme.png","11.png",0,"UP","SP","SP",0,0,11
"717",7321895,"coordination","trial",2087.07600004768,3,"right",10,"15soloseinsieme.png","10.png",0,"UP","SP","SP",0,0,10
"719",7321895,"coordination","trial",5236.237,4,"left",4,"15soloseinsieme.png","4.png",0,"UP","SP","UP",1,0,10.7712765957447
"721",7321895,"coordination","trial",1904.08500000002,5,"left",3,"15soloseinsieme.png","3.png",0,"UP","SP","UP",1,0,10.8510638297872
"723",7321895,"coordination","trial",1694.088,6,"left",8,"8.png","15soloseinsieme.png",0,"SP","UP","SP",0,0,8
"725",7321895,"coordination","trial",1610.16100002384,7,"right",13,"15soloseinsieme.png","13.png",0,"UP","SP","SP",0,0,13
"727",7321895,"coordination","trial",3790.23800004768,8,"left",1,"15soloseinsieme.png","1.png",0,"UP","SP","UP",1,NA,12.0478723404255
"729",7321895,"coordination","trial",1912.08500003576,9,"right",2,"2.png","15soloseinsieme.png",0,"SP","UP","UP",1,0,11.8085106382979
"731",7321895,"coordination","trial",6422.026,10,"left",6,"6.png","15soloseinsieme.png",0,"SP","UP","SP",0,1,6
"733",7321895,"coordination","trial",1844.85000004768,11,"right",12,"15soloseinsieme.png","12.png",0,"UP","SP","SP",0,0,12
"735",7321895,"coordination","trial",1762.20100003577,12,"right",9,"15soloseinsieme.png","9.png",0,"UP","SP","SP",0,0,9
"737",7321895,"coordination","trial",2094.04300002384,13,"left",14,"14.png","15soloseinsieme.png",0,"SP","UP","SP",0,0,14
"739",7321895,"coordination","trial",2587.041,14,"right",15,"15soloseinsieme.png","15.png",0,"UP","SP","SP",0,0,15
"741",7321895,"coordination","trial",2280.17100003576,15,"right",7,"15soloseinsieme.png","7.png",0,"UP","SP","SP",0,0,7
"746",7321895,"lottery","trial",3741.44699999999,1,"right",15,"15soloseacaso.png","15.png",0,"UP","SP","SP",0,0,15
"748",7321895,"lottery","trial",2638.67900001192,2,"left",2,"15soloseacaso.png","2.png",0,"UP","SP","UP",1,0,7.5
"750",7321895,"lottery","trial",1818.463,3,"right",11,"15soloseacaso.png","11.png",0,"UP","SP","SP",0,0,11
"752",7321895,"lottery","trial",1199.89000003577,4,"right",13,"15soloseacaso.png","13.png",0,"UP","SP","SP",0,0,13
"754",7321895,"lottery","trial",2871.73400004768,5,"right",6,"6.png","15soloseacaso.png",0,"SP","UP","UP",1,0,7.5
"756",7321895,"lottery","trial",1618.62800001191,6,"right",1,"1.png","15soloseacaso.png",0,"SP","UP","UP",1,NA,7.5
"758",7321895,"lottery","trial",1860.96800004768,7,"right",7,"15soloseacaso.png","7.png",0,"UP","SP","SP",0,1,7
"760",7321895,"lottery","trial",1436.431,8,"left",10,"10.png","15soloseacaso.png",0,"SP","UP","SP",0,0,10
"762",7321895,"lottery","trial",1987.60800000002,9,"left",5,"15soloseacaso.png","5.png",0,"UP","SP","UP",1,0,7.5
"764",7321895,"lottery","trial",1501.402,10,"left",4,"15soloseacaso.png","4.png",0,"UP","SP","UP",1,0,7.5
"766",7321895,"lottery","trial",1279.00800004767,11,"left",14,"14.png","15soloseacaso.png",0,"SP","UP","SP",0,0,14
"768",7321895,"lottery","trial",1310.785,12,"right",8,"15soloseacaso.png","8.png",0,"UP","SP","SP",0,0,8
"770",7321895,"lottery","trial",1200.12200004768,13,"right",12,"15soloseacaso.png","12.png",0,"UP","SP","SP",0,0,12
"772",7321895,"lottery","trial",1419.60700000002,14,"left",9,"9.png","15soloseacaso.png",0,"SP","UP","SP",0,0,9
"774",7321895,"lottery","trial",1210.67500002385,15,"left",3,"15soloseacaso.png","3.png",0,"UP","SP","UP",1,0,7.5
"779",7321895,"competition","trial",1667.74600002385,1,"right",3,"3.png","15solosesoli.png",0,"SP","UP","UP",1,0,5.74468085106383
"781",7321895,"competition","trial",2536.20500004769,2,"right",1,"1.png","15solosesoli.png",0,"SP","UP","UP",1,NA,5.50531914893617
"783",7321895,"competition","trial",2146.48600001191,3,"left",2,"15solosesoli.png","2.png",0,"UP","SP","UP",1,0,5.42553191489362
"785",7321895,"competition","trial",1226.65000001193,4,"right",12,"15solosesoli.png","12.png",0,"UP","SP","SP",0,1,12
"787",7321895,"competition","trial",1160.76000004768,5,"left",6,"6.png","15solosesoli.png",0,"SP","UP","SP",0,1,6
"789",7321895,"competition","trial",1143.45400003577,6,"right",11,"11.png","15solosesoli.png",0,"SP","UP","UP",1,1,11.1702127659574
"791",7321895,"competition","trial",1526.77299999999,7,"right",4,"4.png","15solosesoli.png",0,"SP","UP","UP",1,0,6.1436170212766
"793",7321895,"competition","trial",1229.46000003576,8,"right",8,"15solosesoli.png","8.png",0,"UP","SP","SP",0,0,8
"795",7321895,"competition","trial",1085.80299999996,9,"right",14,"15solosesoli.png","14.png",0,"UP","SP","SP",0,0,14
"797",7321895,"competition","trial",1484.83900002384,10,"right",15,"15solosesoli.png","15.png",0,"UP","SP","SP",0,0,15
"799",7321895,"competition","trial",1652.23100002384,11,"left",10,"10.png","15solosesoli.png",0,"SP","UP","SP",0,0,10
"801",7321895,"competition","trial",1995.27300001192,12,"right",5,"5.png","15solosesoli.png",0,"SP","UP","UP",1,0,7.26063829787234
"803",7321895,"competition","trial",1635.18700004768,13,"right",7,"15solosesoli.png","7.png",0,"UP","SP","SP",0,0,7
"805",7321895,"competition","trial",1052.25400000002,14,"right",9,"15solosesoli.png","9.png",0,"UP","SP","SP",0,0,9
"807",7321895,"competition","trial",1085.67300000001,15,"right",13,"15solosesoli.png","13.png",0,"UP","SP","SP",0,0,13
"814",7321893,"coordination","trial",7649.34199999982,1,"left",4,"4.png","15soloseinsieme.png",1,"SP","UP","SP",0,1,4
"816",7321893,"coordination","trial",8885.36500000001,2,"right",6,"6.png","15soloseinsieme.png",1,"SP","UP","UP",1,0,9.41489361702128
"818",7321893,"coordination","trial",3191.014,3,"left",8,"8.png","15soloseinsieme.png",0,"SP","UP","SP",0,1,8
"820",7321893,"coordination","trial",14630.3470000002,4,"right",11,"15soloseinsieme.png","11.png",1,"UP","SP","SP",0,0,11
"822",7321893,"coordination","trial",11893.527,5,"right",12,"12.png","15soloseinsieme.png",1,"SP","UP","UP",1,1,4.70744680851064
"824",7321893,"coordination","trial",3698.02300000019,6,"left",10,"10.png","15soloseinsieme.png",0,"SP","UP","SP",0,0,10
"826",7321893,"coordination","trial",13261.0080000002,7,"left",2,"15soloseinsieme.png","2.png",1,"UP","SP","UP",1,0,11.8085106382979
"828",7321893,"coordination","trial",5426.76899999945,8,"right",13,"15soloseinsieme.png","13.png",0,"UP","SP","SP",0,1,13
"830",7321893,"coordination","trial",4351.95699999944,9,"right",15,"15soloseinsieme.png","15.png",0,"UP","SP","SP",0,0,15
"832",7321893,"coordination","trial",5794.58199999944,10,"right",1,"1.png","15soloseinsieme.png",0,"SP","UP","UP",1,NA,12.0478723404255
"834",7321893,"coordination","trial",5077.674,11,"right",3,"3.png","15soloseinsieme.png",0,"SP","UP","UP",1,0,10.8510638297872
"836",7321893,"coordination","trial",2862.59899999999,12,"left",14,"14.png","15soloseinsieme.png",0,"SP","UP","SP",0,0,14
"838",7321893,"coordination","trial",5800.77299999981,13,"left",5,"15soloseinsieme.png","5.png",0,"UP","SP","UP",1,1,9.8936170212766
"840",7321893,"coordination","trial",3333.39099999962,14,"left",9,"9.png","15soloseinsieme.png",0,"SP","UP","SP",0,0,9
"842",7321893,"coordination","trial",8324.83799999944,15,"right",7,"7.png","15soloseinsieme.png",1,"SP","UP","UP",1,0,7.42021276595745
"847",7321893,"competition","trial",9379.12899999984,1,"left",2,"2.png","15solosesoli.png",1,"SP","UP","SP",0,1,2
"849",7321893,"competition","trial",6897.97699999996,2,"left",14,"14.png","15solosesoli.png",0,"SP","UP","SP",0,0,14
"851",7321893,"competition","trial",6179.78100000008,3,"right",5,"15solosesoli.png","5.png",0,"UP","SP","SP",0,1,5
"853",7321893,"competition","trial",6011.37800000003,4,"right",12,"15solosesoli.png","12.png",0,"UP","SP","SP",0,1,12
"855",7321893,"competition","trial",5459.21899999998,5,"right",13,"15solosesoli.png","13.png",0,"UP","SP","SP",0,0,13
"857",7321893,"competition","trial",3980.62499999965,6,"left",1,"15solosesoli.png","1.png",0,"UP","SP","UP",1,NA,5.50531914893617
"859",7321893,"competition","trial",7539.20799999998,7,"left",15,"15.png","15solosesoli.png",1,"SP","UP","SP",0,0,15
"861",7321893,"competition","trial",7323.07999999943,8,"left",3,"3.png","15solosesoli.png",0,"SP","UP","SP",0,0,3
"863",7321893,"competition","trial",3097.50000000017,9,"right",8,"15solosesoli.png","8.png",0,"UP","SP","SP",0,0,8
"865",7321893,"competition","trial",3988.50099999981,10,"left",7,"7.png","15solosesoli.png",0,"SP","UP","SP",0,0,7
"867",7321893,"competition","trial",2262.2579999998,11,"left",11,"15solosesoli.png","11.png",0,"UP","SP","UP",1,1,11.1702127659574
"869",7321893,"competition","trial",3039.77000000008,12,"left",6,"6.png","15solosesoli.png",0,"SP","UP","SP",0,0,6
"871",7321893,"competition","trial",1560.68299999961,13,"right",9,"15solosesoli.png","9.png",0,"UP","SP","SP",0,0,9
"873",7321893,"competition","trial",1542.69900000002,14,"left",10,"10.png","15solosesoli.png",0,"SP","UP","SP",0,0,10
"875",7321893,"competition","trial",2288.21699999995,15,"left",4,"15solosesoli.png","4.png",0,"UP","SP","UP",1,1,6.1436170212766
"880",7321893,"lottery","trial",5768.84599999944,1,"right",6,"15soloseacaso.png","6.png",0,"UP","SP","SP",0,1,6
"882",7321893,"lottery","trial",4317.93399999983,2,"right",8,"15soloseacaso.png","8.png",0,"UP","SP","SP",0,0,8
"884",7321893,"lottery","trial",3223.48400000005,3,"left",5,"15soloseacaso.png","5.png",0,"UP","SP","UP",1,1,7.5
"886",7321893,"lottery","trial",2938.09499999962,4,"left",9,"15soloseacaso.png","9.png",0,"UP","SP","UP",1,1,7.5
"888",7321893,"lottery","trial",1617.77399999963,5,"left",3,"3.png","15soloseacaso.png",0,"SP","UP","SP",0,1,3
"890",7321893,"lottery","trial",1519.59399999946,6,"left",11,"11.png","15soloseacaso.png",0,"SP","UP","SP",0,0,11
"892",7321893,"lottery","trial",4676.1010000002,7,"right",4,"15soloseacaso.png","4.png",0,"UP","SP","SP",0,0,4
"894",7321893,"lottery","trial",1425.54800000018,8,"left",15,"15.png","15soloseacaso.png",0,"SP","UP","SP",0,0,15
"896",7321893,"lottery","trial",1427.69899999961,9,"left",12,"12.png","15soloseacaso.png",0,"SP","UP","SP",0,0,12
"898",7321893,"lottery","trial",1928.13199999981,10,"right",10,"15soloseacaso.png","10.png",0,"UP","SP","SP",0,1,10
"900",7321893,"lottery","trial",1334.48300000001,11,"right",7,"15soloseacaso.png","7.png",0,"UP","SP","SP",0,0,7
"902",7321893,"lottery","trial",3765.33799999946,12,"left",2,"15soloseacaso.png","2.png",0,"UP","SP","UP",1,1,7.5
"904",7321893,"lottery","trial",1666.25499999942,13,"left",14,"14.png","15soloseacaso.png",0,"SP","UP","SP",0,0,14
"906",7321893,"lottery","trial",1343.179,14,"left",13,"13.png","15soloseacaso.png",0,"SP","UP","SP",0,0,13
"908",7321893,"lottery","trial",1935.24599999981,15,"right",1,"15soloseacaso.png","1.png",0,"UP","SP","SP",0,NA,1
"915",7321897,"lottery","trial",6831.145,1,"left",3,"15soloseacaso.png","3.png",0,"UP","SP","UP",1,0,7.5
"917",7321897,"lottery","trial",10221.857,2,"left",2,"15soloseacaso.png","2.png",1,"UP","SP","UP",1,0,7.5
"919",7321897,"lottery","trial",3273.68399999999,3,"right",12,"15soloseacaso.png","12.png",0,"UP","SP","SP",0,0,12
"921",7321897,"lottery","trial",2778.656,4,"left",10,"10.png","15soloseacaso.png",0,"SP","UP","SP",0,0,10
"923",7321897,"lottery","trial",2437.54499999963,5,"right",14,"15soloseacaso.png","14.png",0,"UP","SP","SP",0,0,14
"925",7321897,"lottery","trial",3653.67299999963,6,"left",4,"15soloseacaso.png","4.png",0,"UP","SP","UP",1,0,7.5
"927",7321897,"lottery","trial",2554.11999999982,7,"left",1,"15soloseacaso.png","1.png",0,"UP","SP","UP",1,NA,7.5
"929",7321897,"lottery","trial",1903.78799999981,8,"left",5,"15soloseacaso.png","5.png",0,"UP","SP","UP",1,0,7.5
"931",7321897,"lottery","trial",2519.25800000019,9,"right",6,"6.png","15soloseacaso.png",0,"SP","UP","UP",1,0,7.5
"933",7321897,"lottery","trial",2094.97199999944,10,"left",9,"9.png","15soloseacaso.png",0,"SP","UP","SP",0,1,9
"935",7321897,"lottery","trial",2555.51299999998,11,"left",15,"15.png","15soloseacaso.png",0,"SP","UP","SP",0,0,15
"937",7321897,"lottery","trial",3848.71299999944,12,"left",8,"15soloseacaso.png","8.png",0,"UP","SP","UP",1,0,7.5
"939",7321897,"lottery","trial",1536.61899999999,13,"right",11,"15soloseacaso.png","11.png",0,"UP","SP","SP",0,0,11
"941",7321897,"lottery","trial",1460.31599999963,14,"left",13,"13.png","15soloseacaso.png",0,"SP","UP","SP",0,0,13
"943",7321897,"lottery","trial",2488.66799999999,15,"right",7,"7.png","15soloseacaso.png",0,"SP","UP","UP",1,0,7.5
"948",7321897,"competition","trial",2051.51899999945,1,"right",2,"2.png","15solosesoli.png",0,"SP","UP","UP",1,0,5.42553191489362
"950",7321897,"competition","trial",3490.75900000001,2,"left",5,"15solosesoli.png","5.png",0,"UP","SP","UP",1,0,7.26063829787234
"952",7321897,"competition","trial",1508.84500000019,3,"left",1,"15solosesoli.png","1.png",0,"UP","SP","UP",1,NA,5.50531914893617
"954",7321897,"competition","trial",1786.53100000019,4,"left",3,"15solosesoli.png","3.png",0,"UP","SP","UP",1,0,5.74468085106383
"956",7321897,"competition","trial",1419.70799999998,5,"right",9,"15solosesoli.png","9.png",0,"UP","SP","SP",0,1,9
"958",7321897,"competition","trial",1777.81699999963,6,"right",12,"15solosesoli.png","12.png",0,"UP","SP","SP",0,0,12
"960",7321897,"competition","trial",1719.192,7,"right",4,"4.png","15solosesoli.png",0,"SP","UP","UP",1,0,6.1436170212766
"962",7321897,"competition","trial",1580.56499999962,8,"right",15,"15.png","15solosesoli.png",0,"SP","UP","UP",1,1,10.7712765957447
"964",7321897,"competition","trial",2663.47199999999,9,"left",14,"14.png","15solosesoli.png",0,"SP","UP","SP",0,0,14
"966",7321897,"competition","trial",2551.18899999963,10,"left",13,"13.png","15solosesoli.png",0,"SP","UP","SP",0,0,13
"968",7321897,"competition","trial",2355.01499999998,11,"left",10,"10.png","15solosesoli.png",0,"SP","UP","SP",0,0,10
"970",7321897,"competition","trial",1887.31700000001,12,"left",11,"11.png","15solosesoli.png",0,"SP","UP","SP",0,0,11
"972",7321897,"competition","trial",1870.61899999998,13,"left",6,"15solosesoli.png","6.png",0,"UP","SP","UP",1,0,7.42021276595745
"974",7321897,"competition","trial",2287.81699999943,14,"right",7,"7.png","15solosesoli.png",0,"SP","UP","UP",1,0,8.13829787234043
"976",7321897,"competition","trial",2054.31200000001,15,"left",8,"15solosesoli.png","8.png",0,"UP","SP","UP",1,0,8.93617021276596
"981",7321897,"coordination","trial",3749.30600000019,1,"right",6,"6.png","15soloseinsieme.png",0,"SP","UP","UP",1,0,9.41489361702128
"983",7321897,"coordination","trial",1837.35300000003,2,"right",14,"15soloseinsieme.png","14.png",0,"UP","SP","SP",0,0,14
"985",7321897,"coordination","trial",2755.07500000001,3,"left",12,"12.png","15soloseinsieme.png",0,"SP","UP","SP",0,0,12
"987",7321897,"coordination","trial",2054.18200000003,4,"right",5,"5.png","15soloseinsieme.png",0,"SP","UP","UP",1,0,9.8936170212766
"989",7321897,"coordination","trial",2963.43999999983,5,"right",1,"1.png","15soloseinsieme.png",0,"SP","UP","UP",1,NA,12.0478723404255
"991",7321897,"coordination","trial",2339.24300000002,6,"left",3,"15soloseinsieme.png","3.png",0,"UP","SP","UP",1,0,10.8510638297872
"993",7321897,"coordination","trial",4046.70699999944,7,"left",8,"15soloseinsieme.png","8.png",0,"UP","SP","UP",1,0,7.02127659574468
"995",7321897,"coordination","trial",3288.53199999945,8,"right",4,"4.png","15soloseinsieme.png",0,"SP","UP","UP",1,0,10.7712765957447
"997",7321897,"coordination","trial",1596.31500000018,9,"left",11,"11.png","15soloseinsieme.png",0,"SP","UP","SP",0,0,11
"999",7321897,"coordination","trial",2963.55899999946,10,"right",9,"9.png","15soloseinsieme.png",0,"SP","UP","UP",1,0,6.46276595744681
"1001",7321897,"coordination","trial",1410.33799999981,11,"left",2,"15soloseinsieme.png","2.png",0,"UP","SP","UP",1,0,11.8085106382979
"1003",7321897,"coordination","trial",1133.14299999981,12,"left",10,"10.png","15soloseinsieme.png",0,"SP","UP","SP",0,1,10
"1005",7321897,"coordination","trial",1621.43699999998,13,"right",13,"15soloseinsieme.png","13.png",0,"UP","SP","SP",0,0,13
"1007",7321897,"coordination","trial",1768.36799999943,14,"right",15,"15soloseinsieme.png","15.png",0,"UP","SP","SP",0,0,15
"1009",7321897,"coordination","trial",1787.20299999998,15,"right",7,"7.png","15soloseinsieme.png",0,"SP","UP","UP",1,0,7.42021276595745
"1016",7321891,"lottery","trial",3551,1,"right",8,"15soloseacaso.png","8.png",0,"UP","SP","SP",0,0,8
"1018",7321891,"lottery","trial",2134,2,"left",14,"14.png","15soloseacaso.png",0,"SP","UP","SP",0,0,14
"1020",7321891,"lottery","trial",2232,3,"left",9,"9.png","15soloseacaso.png",0,"SP","UP","SP",0,0,9
"1022",7321891,"lottery","trial",3484,4,"right",3,"15soloseacaso.png","3.png",0,"UP","SP","SP",0,1,3
"1024",7321891,"lottery","trial",1570,5,"left",15,"15.png","15soloseacaso.png",0,"SP","UP","SP",0,0,15
"1026",7321891,"lottery","trial",2682,6,"right",1,"1.png","15soloseacaso.png",0,"SP","UP","UP",1,NA,7.5
"1028",7321891,"lottery","trial",1966,7,"right",13,"15soloseacaso.png","13.png",0,"UP","SP","SP",0,0,13
"1030",7321891,"lottery","trial",2585,8,"left",11,"11.png","15soloseacaso.png",0,"SP","UP","SP",0,0,11
"1032",7321891,"lottery","trial",1316,9,"right",5,"15soloseacaso.png","5.png",0,"UP","SP","SP",0,0,5
"1034",7321891,"lottery","trial",1438,10,"left",6,"6.png","15soloseacaso.png",0,"SP","UP","SP",0,0,6
"1036",7321891,"lottery","trial",2017,11,"left",4,"4.png","15soloseacaso.png",0,"SP","UP","SP",0,0,4
"1038",7321891,"lottery","trial",1404,12,"left",7,"7.png","15soloseacaso.png",0,"SP","UP","SP",0,0,7
"1040",7321891,"lottery","trial",1201,13,"right",12,"15soloseacaso.png","12.png",0,"UP","SP","SP",0,0,12
"1042",7321891,"lottery","trial",1117,14,"right",10,"15soloseacaso.png","10.png",0,"UP","SP","SP",0,0,10
"1044",7321891,"lottery","trial",3516,15,"right",2,"2.png","15soloseacaso.png",0,"SP","UP","UP",1,0,7.5
"1049",7321891,"coordination","trial",1766,1,"right",15,"15soloseinsieme.png","15.png",0,"UP","SP","SP",0,0,15
"1051",7321891,"coordination","trial",2852,2,"left",1,"15soloseinsieme.png","1.png",0,"UP","SP","UP",1,NA,12.0478723404255
"1053",7321891,"coordination","trial",9402,3,"left",3,"3.png","15soloseinsieme.png",1,"SP","UP","SP",0,1,3
"1055",7321891,"coordination","trial",2916,4,"left",5,"5.png","15soloseinsieme.png",0,"SP","UP","SP",0,0,5
"1057",7321891,"coordination","trial",1485,5,"left",6,"6.png","15soloseinsieme.png",0,"SP","UP","SP",0,0,6
"1059",7321891,"coordination","trial",1138,6,"right",8,"15soloseinsieme.png","8.png",0,"UP","SP","SP",0,0,8
"1061",7321891,"coordination","trial",966,7,"right",13,"15soloseinsieme.png","13.png",0,"UP","SP","SP",0,0,13
"1063",7321891,"coordination","trial",1121,8,"right",4,"15soloseinsieme.png","4.png",0,"UP","SP","SP",0,0,4
"1065",7321891,"coordination","trial",1066,9,"right",7,"15soloseinsieme.png","7.png",0,"UP","SP","SP",0,0,7
"1067",7321891,"coordination","trial",1401,10,"left",12,"12.png","15soloseinsieme.png",0,"SP","UP","SP",0,0,12
"1069",7321891,"coordination","trial",1134,11,"left",9,"9.png","15soloseinsieme.png",0,"SP","UP","SP",0,0,9
"1071",7321891,"coordination","trial",1150,12,"right",11,"15soloseinsieme.png","11.png",0,"UP","SP","SP",0,0,11
"1073",7321891,"coordination","trial",1286,13,"left",14,"14.png","15soloseinsieme.png",0,"SP","UP","SP",0,0,14
"1075",7321891,"coordination","trial",1132,14,"right",10,"15soloseinsieme.png","10.png",0,"UP","SP","SP",0,0,10
"1077",7321891,"coordination","trial",2715,15,"right",2,"2.png","15soloseinsieme.png",0,"SP","UP","UP",1,0,11.8085106382979
"1082",7321891,"competition","trial",2551,1,"left",14,"14.png","15solosesoli.png",0,"SP","UP","SP",0,0,14
"1084",7321891,"competition","trial",1282,2,"right",1,"1.png","15solosesoli.png",0,"SP","UP","UP",1,NA,5.50531914893617
"1086",7321891,"competition","trial",6768,3,"left",4,"15solosesoli.png","4.png",0,"UP","SP","UP",1,0,6.1436170212766
"1088",7321891,"competition","trial",2918,4,"right",9,"15solosesoli.png","9.png",0,"UP","SP","SP",0,0,9
"1090",7321891,"competition","trial",1181,5,"left",15,"15.png","15solosesoli.png",0,"SP","UP","SP",0,0,15
"1092",7321891,"competition","trial",3066,6,"right",10,"15solosesoli.png","10.png",0,"UP","SP","SP",0,0,10
"1094",7321891,"competition","trial",1533,7,"left",12,"12.png","15solosesoli.png",0,"SP","UP","SP",0,0,12
"1096",7321891,"competition","trial",1984,8,"right",5,"5.png","15solosesoli.png",0,"SP","UP","UP",1,0,7.26063829787234
"1098",7321891,"competition","trial",1236,9,"left",11,"11.png","15solosesoli.png",0,"SP","UP","SP",0,0,11
"1100",7321891,"competition","trial",1349,10,"right",3,"3.png","15solosesoli.png",0,"SP","UP","UP",1,0,5.74468085106383
"1102",7321891,"competition","trial",1471,11,"right",6,"6.png","15solosesoli.png",0,"SP","UP","UP",1,0,7.42021276595745
"1104",7321891,"competition","trial",1267,12,"left",13,"13.png","15solosesoli.png",0,"SP","UP","SP",0,0,13
"1106",7321891,"competition","trial",1668,13,"left",8,"8.png","15solosesoli.png",0,"SP","UP","SP",0,0,8
"1108",7321891,"competition","trial",1683,14,"left",2,"15solosesoli.png","2.png",0,"UP","SP","UP",1,0,5.42553191489362
"1110",7321891,"competition","trial",2568,15,"left",7,"7.png","15solosesoli.png",0,"SP","UP","SP",0,1,7
"1117",7321894,"coordination","trial",10168,1,"right",4,"4.png","15soloseinsieme.png",1,"SP","UP","UP",1,0,10.7712765957447
"1119",7321894,"coordination","trial",4263,2,"right",9,"15soloseinsieme.png","9.png",0,"UP","SP","SP",0,0,9
"1121",7321894,"coordination","trial",5766,3,"right",11,"15soloseinsieme.png","11.png",0,"UP","SP","SP",0,0,11
"1123",7321894,"coordination","trial",6932,4,"left",10,"10.png","15soloseinsieme.png",0,"SP","UP","SP",0,0,10
"1125",7321894,"coordination","trial",42820,5,"right",15,"15soloseinsieme.png","15.png",1,"UP","SP","SP",0,0,15
"1127",7321894,"coordination","trial",4785,6,"right",1,"1.png","15soloseinsieme.png",0,"SP","UP","UP",1,NA,12.0478723404255
"1129",7321894,"coordination","trial",5399,7,"right",6,"15soloseinsieme.png","6.png",0,"UP","SP","SP",0,1,6
"1131",7321894,"coordination","trial",4385,8,"right",13,"15soloseinsieme.png","13.png",0,"UP","SP","SP",0,0,13
"1133",7321894,"coordination","trial",5766,9,"left",7,"7.png","15soloseinsieme.png",0,"SP","UP","SP",0,0,7
"1135",7321894,"coordination","trial",1802,10,"right",3,"3.png","15soloseinsieme.png",0,"SP","UP","UP",1,0,10.8510638297872
"1137",7321894,"coordination","trial",2167,11,"left",14,"14.png","15soloseinsieme.png",0,"SP","UP","SP",0,0,14
"1139",7321894,"coordination","trial",2451,12,"left",12,"12.png","15soloseinsieme.png",0,"SP","UP","SP",0,0,12
"1141",7321894,"coordination","trial",4466,13,"right",8,"15soloseinsieme.png","8.png",0,"UP","SP","SP",0,0,8
"1143",7321894,"coordination","trial",1584,14,"right",5,"5.png","15soloseinsieme.png",0,"SP","UP","UP",1,0,9.8936170212766
"1145",7321894,"coordination","trial",2149,15,"left",2,"15soloseinsieme.png","2.png",0,"UP","SP","UP",1,0,11.8085106382979
"1150",7321894,"lottery","trial",3699,1,"right",2,"2.png","15soloseacaso.png",0,"SP","UP","UP",1,0,7.5
"1152",7321894,"lottery","trial",2583,2,"left",15,"15.png","15soloseacaso.png",0,"SP","UP","SP",0,0,15
"1154",7321894,"lottery","trial",1601,3,"left",10,"10.png","15soloseacaso.png",0,"SP","UP","SP",0,0,10
"1156",7321894,"lottery","trial",2768,4,"left",4,"4.png","15soloseacaso.png",0,"SP","UP","SP",0,1,4
"1158",7321894,"lottery","trial",1635,5,"right",3,"3.png","15soloseacaso.png",0,"SP","UP","UP",1,0,7.5
"1160",7321894,"lottery","trial",2128,6,"left",1,"15soloseacaso.png","1.png",0,"UP","SP","UP",1,NA,7.5
"1162",7321894,"lottery","trial",2034,7,"left",7,"7.png","15soloseacaso.png",0,"SP","UP","SP",0,0,7
"1164",7321894,"lottery","trial",1534,8,"left",13,"13.png","15soloseacaso.png",0,"SP","UP","SP",0,0,13
"1166",7321894,"lottery","trial",1286,9,"right",14,"15soloseacaso.png","14.png",0,"UP","SP","SP",0,0,14
"1168",7321894,"lottery","trial",2185,10,"right",5,"15soloseacaso.png","5.png",0,"UP","SP","SP",0,0,5
"1170",7321894,"lottery","trial",1268,11,"right",11,"15soloseacaso.png","11.png",0,"UP","SP","SP",0,0,11
"1172",7321894,"lottery","trial",4082,12,"right",6,"15soloseacaso.png","6.png",0,"UP","SP","SP",0,0,6
"1174",7321894,"lottery","trial",1733,13,"left",9,"9.png","15soloseacaso.png",0,"SP","UP","SP",0,0,9
"1176",7321894,"lottery","trial",1667,14,"left",12,"12.png","15soloseacaso.png",0,"SP","UP","SP",0,0,12
"1178",7321894,"lottery","trial",2348,15,"right",8,"15soloseacaso.png","8.png",0,"UP","SP","SP",0,0,8
"1183",7321894,"competition","trial",4384,1,"left",8,"15solosesoli.png","8.png",0,"UP","SP","UP",1,0,8.93617021276596
"1185",7321894,"competition","trial",2368,2,"right",12,"15solosesoli.png","12.png",0,"UP","SP","SP",0,0,12
"1187",7321894,"competition","trial",9833,3,"left",2,"2.png","15solosesoli.png",1,"SP","UP","SP",0,1,2
"1189",7321894,"competition","trial",1518.00000000003,4,"left",13,"13.png","15solosesoli.png",0,"SP","UP","SP",0,0,13
"1191",7321894,"competition","trial",3685,5,"right",3,"3.png","15solosesoli.png",0,"SP","UP","UP",1,1,5.74468085106383
"1193",7321894,"competition","trial",2653,6,"right",6,"6.png","15solosesoli.png",0,"SP","UP","UP",1,1,7.42021276595745
"1195",7321894,"competition","trial",3317,7,"right",4,"15solosesoli.png","4.png",0,"UP","SP","SP",0,1,4
"1197",7321894,"competition","trial",2149,8,"right",15,"15solosesoli.png","15.png",0,"UP","SP","SP",0,0,15
"1199",7321894,"competition","trial",4517,9,"left",14,"14.png","15solosesoli.png",0,"SP","UP","SP",0,0,14
"1201",7321894,"competition","trial",1850,10,"left",11,"11.png","15solosesoli.png",0,"SP","UP","SP",0,0,11
"1203",7321894,"competition","trial",1818,11,"right",7,"7.png","15solosesoli.png",0,"SP","UP","UP",1,0,8.13829787234043
"1205",7321894,"competition","trial",1551,12,"right",10,"15solosesoli.png","10.png",0,"UP","SP","SP",0,0,10
"1207",7321894,"competition","trial",2784,13,"right",5,"15solosesoli.png","5.png",0,"UP","SP","SP",0,0,5
"1209",7321894,"competition","trial",1284,14,"right",1,"1.png","15solosesoli.png",0,"SP","UP","UP",1,NA,5.50531914893617
"1211",7321894,"competition","trial",2466,15,"left",9,"9.png","15solosesoli.png",0,"SP","UP","SP",0,1,9
"1218",7321887,"coordination","trial",5010.672,1,"right",3,"3.png","15soloseinsieme.png",0,"SP","UP","UP",1,0,10.8510638297872
"1220",7321887,"coordination","trial",10655.504,2,"right",11,"15soloseinsieme.png","11.png",1,"UP","SP","SP",0,0,11
"1222",7321887,"coordination","trial",9453.75299998212,3,"right",14,"14.png","15soloseinsieme.png",1,"SP","UP","UP",1,1,3.11170212765957
"1224",7321887,"coordination","trial",6046.455,4,"left",12,"15soloseinsieme.png","12.png",0,"UP","SP","UP",1,1,4.70744680851064
"1226",7321887,"coordination","trial",5027.606,5,"right",15,"15soloseinsieme.png","15.png",0,"UP","SP","SP",0,1,15
"1228",7321887,"coordination","trial",3265.22100000596,6,"right",9,"15soloseinsieme.png","9.png",0,"UP","SP","SP",0,1,9
"1230",7321887,"coordination","trial",6859.07999998212,7,"left",10,"10.png","15soloseinsieme.png",0,"SP","UP","SP",0,0,10
"1232",7321887,"coordination","trial",2982.06999999404,8,"left",5,"15soloseinsieme.png","5.png",0,"UP","SP","UP",1,0,9.8936170212766
"1234",7321887,"coordination","trial",4324.022,9,"left",1,"15soloseinsieme.png","1.png",0,"UP","SP","UP",1,NA,12.0478723404255
"1236",7321887,"coordination","trial",4485.15199998212,10,"right",6,"15soloseinsieme.png","6.png",0,"UP","SP","SP",0,1,6
"1238",7321887,"coordination","trial",7798.90999998809,11,"right",4,"4.png","15soloseinsieme.png",1,"SP","UP","UP",1,0,10.7712765957447
"1240",7321887,"coordination","trial",3500.37599998212,12,"left",13,"13.png","15soloseinsieme.png",0,"SP","UP","SP",0,1,13
"1242",7321887,"coordination","trial",4474.749,13,"right",8,"8.png","15soloseinsieme.png",0,"SP","UP","UP",1,1,7.02127659574468
"1244",7321887,"coordination","trial",3430.32499998211,14,"left",2,"15soloseinsieme.png","2.png",0,"UP","SP","UP",1,0,11.8085106382979
"1246",7321887,"coordination","trial",1525.39899998211,15,"right",7,"15soloseinsieme.png","7.png",0,"UP","SP","SP",0,0,7
"1251",7321887,"competition","trial",3431.80199998213,1,"left",6,"6.png","15solosesoli.png",0,"SP","UP","SP",0,0,6
"1253",7321887,"competition","trial",3457.21599999996,2,"left",7,"15solosesoli.png","7.png",0,"UP","SP","UP",1,1,8.13829787234043
"1255",7321887,"competition","trial",3791.984,3,"left",8,"8.png","15solosesoli.png",0,"SP","UP","SP",0,1,8
"1257",7321887,"competition","trial",6305.45299999404,4,"left",5,"5.png","15solosesoli.png",0,"SP","UP","SP",0,0,5
"1259",7321887,"competition","trial",3650.22899998809,5,"right",15,"15.png","15solosesoli.png",0,"SP","UP","UP",1,1,10.7712765957447
"1261",7321887,"competition","trial",1837.49599999996,6,"right",3,"3.png","15solosesoli.png",0,"SP","UP","UP",1,1,5.74468085106383
"1263",7321887,"competition","trial",2088.09899999999,7,"right",14,"15solosesoli.png","14.png",0,"UP","SP","SP",0,0,14
"1265",7321887,"competition","trial",4617.59999998807,8,"left",2,"2.png","15solosesoli.png",0,"SP","UP","SP",0,1,2
"1267",7321887,"competition","trial",1853.82899999997,9,"right",11,"11.png","15solosesoli.png",0,"SP","UP","UP",1,1,11.1702127659574
"1269",7321887,"competition","trial",3966.39900000597,10,"right",10,"15solosesoli.png","10.png",0,"UP","SP","SP",0,1,10
"1271",7321887,"competition","trial",7398.92200000002,11,"left",9,"15solosesoli.png","9.png",1,"UP","SP","UP",1,1,9.73404255319149
"1273",7321887,"competition","trial",1202.49699999997,12,"left",4,"4.png","15solosesoli.png",0,"SP","UP","SP",0,1,4
"1275",7321887,"competition","trial",2346.68799998212,13,"left",1,"15solosesoli.png","1.png",0,"UP","SP","UP",1,NA,5.50531914893617
"1277",7321887,"competition","trial",2255.03000000003,14,"right",12,"15solosesoli.png","12.png",0,"UP","SP","SP",0,1,12
"1279",7321887,"competition","trial",2020.76400000596,15,"left",13,"13.png","15solosesoli.png",0,"SP","UP","SP",0,0,13
"1284",7321887,"lottery","trial",8977.74599999405,1,"left",6,"6.png","15soloseacaso.png",1,"SP","UP","SP",0,0,6
"1286",7321887,"lottery","trial",1918.27899998808,2,"left",8,"15soloseacaso.png","8.png",0,"UP","SP","UP",1,1,7.5
"1288",7321887,"lottery","trial",4641.1409999821,3,"right",3,"15soloseacaso.png","3.png",0,"UP","SP","SP",0,1,3
"1290",7321887,"lottery","trial",1560.69499999404,4,"left",12,"15soloseacaso.png","12.png",0,"UP","SP","UP",1,0,7.5
"1292",7321887,"lottery","trial",2147.61100000597,5,"right",14,"15soloseacaso.png","14.png",0,"UP","SP","SP",0,0,14
"1294",7321887,"lottery","trial",3240.03599999999,6,"right",4,"4.png","15soloseacaso.png",0,"SP","UP","UP",1,1,7.5
"1296",7321887,"lottery","trial",2069.89300000595,7,"left",9,"15soloseacaso.png","9.png",0,"UP","SP","UP",1,0,7.5
"1298",7321887,"lottery","trial",1536.51599999997,8,"left",15,"15.png","15soloseacaso.png",0,"SP","UP","SP",0,0,15
"1300",7321887,"lottery","trial",1453.19200000001,9,"right",1,"15soloseacaso.png","1.png",0,"UP","SP","SP",0,NA,1
"1302",7321887,"lottery","trial",4909.50400000595,10,"right",13,"15soloseacaso.png","13.png",0,"UP","SP","SP",0,1,13
"1304",7321887,"lottery","trial",1168.079,11,"left",2,"15soloseacaso.png","2.png",0,"UP","SP","UP",1,1,7.5
"1306",7321887,"lottery","trial",1803.93900000001,12,"right",7,"15soloseacaso.png","7.png",0,"UP","SP","SP",0,0,7
"1308",7321887,"lottery","trial",1903.93799998212,13,"right",5,"15soloseacaso.png","5.png",0,"UP","SP","SP",0,1,5
"1310",7321887,"lottery","trial",1702.40899998212,14,"right",11,"11.png","15soloseacaso.png",0,"SP","UP","UP",1,0,7.5
"1312",7321887,"lottery","trial",2938.80099998211,15,"left",10,"15soloseacaso.png","10.png",0,"UP","SP","UP",1,0,7.5
"1319",7321888,"competition","trial",5984,1,"right",9,"15solosesoli.png","9.png",0,"UP","SP","SP",0,0,9
"1321",7321888,"competition","trial",6400,2,"right",8,"15solosesoli.png","8.png",0,"UP","SP","SP",0,0,8
"1323",7321888,"competition","trial",3216,3,"left",12,"12.png","15solosesoli.png",0,"SP","UP","SP",0,0,12
"1325",7321888,"competition","trial",2518,4,"right",5,"15solosesoli.png","5.png",0,"UP","SP","SP",0,0,5
"1327",7321888,"competition","trial",2401,5,"right",6,"15solosesoli.png","6.png",0,"UP","SP","SP",0,0,6
"1329",7321888,"competition","trial",2732,6,"left",1,"1.png","15solosesoli.png",0,"SP","UP","SP",0,NA,1
"1331",7321888,"competition","trial",2367,7,"right",10,"15solosesoli.png","10.png",0,"UP","SP","SP",0,0,10
"1333",7321888,"competition","trial",2299,8,"right",7,"15solosesoli.png","7.png",0,"UP","SP","SP",0,0,7
"1335",7321888,"competition","trial",2433,9,"right",4,"15solosesoli.png","4.png",0,"UP","SP","SP",0,0,4
"1337",7321888,"competition","trial",1633.00000000001,10,"left",3,"3.png","15solosesoli.png",0,"SP","UP","SP",0,0,3
"1339",7321888,"competition","trial",1519,11,"right",2,"15solosesoli.png","2.png",0,"UP","SP","SP",0,0,2
"1341",7321888,"competition","trial",1884,12,"left",13,"13.png","15solosesoli.png",0,"SP","UP","SP",0,0,13
"1343",7321888,"competition","trial",2379,13,"right",15,"15solosesoli.png","15.png",0,"UP","SP","SP",0,0,15
"1345",7321888,"competition","trial",1899,14,"left",14,"14.png","15solosesoli.png",0,"SP","UP","SP",0,0,14
"1347",7321888,"competition","trial",1301,15,"right",11,"15solosesoli.png","11.png",0,"UP","SP","SP",0,0,11
"1352",7321888,"lottery","trial",2384,1,"right",13,"15soloseacaso.png","13.png",0,"UP","SP","SP",0,0,13
"1354",7321888,"lottery","trial",1569.00000000001,2,"right",5,"15soloseacaso.png","5.png",0,"UP","SP","SP",0,0,5
"1356",7321888,"lottery","trial",1086,3,"right",14,"15soloseacaso.png","14.png",0,"UP","SP","SP",0,0,14
"1358",7321888,"lottery","trial",1132,4,"right",7,"15soloseacaso.png","7.png",0,"UP","SP","SP",0,0,7
"1360",7321888,"lottery","trial",1303,5,"right",15,"15soloseacaso.png","15.png",0,"UP","SP","SP",0,0,15
"1362",7321888,"lottery","trial",1068,6,"right",9,"15soloseacaso.png","9.png",0,"UP","SP","SP",0,0,9
"1364",7321888,"lottery","trial",1317,7,"left",11,"11.png","15soloseacaso.png",0,"SP","UP","SP",0,0,11
"1366",7321888,"lottery","trial",1502,8,"right",1,"15soloseacaso.png","1.png",0,"UP","SP","SP",0,NA,1
"1368",7321888,"lottery","trial",1298,9,"left",2,"2.png","15soloseacaso.png",0,"SP","UP","SP",0,0,2
"1370",7321888,"lottery","trial",882,10,"right",3,"15soloseacaso.png","3.png",0,"UP","SP","SP",0,0,3
"1372",7321888,"lottery","trial",2050,11,"right",8,"15soloseacaso.png","8.png",0,"UP","SP","SP",0,0,8
"1374",7321888,"lottery","trial",1317,12,"left",10,"10.png","15soloseacaso.png",0,"SP","UP","SP",0,0,10
"1376",7321888,"lottery","trial",1436,13,"right",12,"15soloseacaso.png","12.png",0,"UP","SP","SP",0,0,12
"1378",7321888,"lottery","trial",1268,14,"right",6,"15soloseacaso.png","6.png",0,"UP","SP","SP",0,0,6
"1380",7321888,"lottery","trial",1034,15,"right",4,"15soloseacaso.png","4.png",0,"UP","SP","SP",0,0,4
"1385",7321888,"coordination","trial",2483,1,"left",2,"2.png","15soloseinsieme.png",0,"SP","UP","SP",0,0,2
"1387",7321888,"coordination","trial",1169,2,"left",1,"1.png","15soloseinsieme.png",0,"SP","UP","SP",0,NA,1
"1389",7321888,"coordination","trial",1186,3,"right",4,"15soloseinsieme.png","4.png",0,"UP","SP","SP",0,0,4
"1391",7321888,"coordination","trial",1101,4,"left",9,"9.png","15soloseinsieme.png",0,"SP","UP","SP",0,0,9
"1393",7321888,"coordination","trial",1268,5,"left",10,"10.png","15soloseinsieme.png",0,"SP","UP","SP",0,0,10
"1395",7321888,"coordination","trial",1117,6,"left",11,"11.png","15soloseinsieme.png",0,"SP","UP","SP",0,0,11
"1397",7321888,"coordination","trial",1767,7,"left",13,"13.png","15soloseinsieme.png",0,"SP","UP","SP",0,0,13
"1399",7321888,"coordination","trial",1034,8,"left",12,"12.png","15soloseinsieme.png",0,"SP","UP","SP",0,0,12
"1401",7321888,"coordination","trial",1469,9,"right",14,"15soloseinsieme.png","14.png",0,"UP","SP","SP",0,0,14
"1403",7321888,"coordination","trial",1388,10,"right",15,"15soloseinsieme.png","15.png",0,"UP","SP","SP",0,0,15
"1405",7321888,"coordination","trial",1450,11,"left",8,"8.png","15soloseinsieme.png",0,"SP","UP","SP",0,0,8
"1407",7321888,"coordination","trial",1101,12,"left",5,"5.png","15soloseinsieme.png",0,"SP","UP","SP",0,0,5
"1409",7321888,"coordination","trial",885,13,"left",6,"6.png","15soloseinsieme.png",0,"SP","UP","SP",0,0,6
"1411",7321888,"coordination","trial",951,14,"left",3,"3.png","15soloseinsieme.png",0,"SP","UP","SP",0,0,3
"1413",7321888,"coordination","trial",1018,15,"left",7,"7.png","15soloseinsieme.png",0,"SP","UP","SP",0,0,7
"1420",7321886,"lottery","trial",8545.505,1,"left",10,"10.png","15soloseacaso.png",1,"SP","UP","SP",0,1,10
"1422",7321886,"lottery","trial",2898.613,2,"right",12,"12.png","15soloseacaso.png",0,"SP","UP","UP",1,1,7.5
"1424",7321886,"lottery","trial",2202.32200000894,3,"left",4,"4.png","15soloseacaso.png",0,"SP","UP","SP",0,0,4
"1426",7321886,"lottery","trial",1870.611,4,"left",11,"11.png","15soloseacaso.png",0,"SP","UP","SP",0,0,11
"1428",7321886,"lottery","trial",2765.68100000894,5,"left",1,"15soloseacaso.png","1.png",0,"UP","SP","UP",1,NA,7.5
"1430",7321886,"lottery","trial",1778.11800000596,6,"left",7,"7.png","15soloseacaso.png",0,"SP","UP","SP",0,0,7
"1432",7321886,"lottery","trial",1829.739,7,"right",14,"15soloseacaso.png","14.png",0,"UP","SP","SP",0,0,14
"1434",7321886,"lottery","trial",1853.40300000298,8,"left",5,"15soloseacaso.png","5.png",0,"UP","SP","UP",1,1,7.5
"1436",7321886,"lottery","trial",2147.58900000894,9,"left",3,"3.png","15soloseacaso.png",0,"SP","UP","SP",0,1,3
"1438",7321886,"lottery","trial",1619.84999999999,10,"right",2,"2.png","15soloseacaso.png",0,"SP","UP","UP",1,0,7.5
"1440",7321886,"lottery","trial",1335.94600000596,11,"left",13,"13.png","15soloseacaso.png",0,"SP","UP","SP",0,1,13
"1442",7321886,"lottery","trial",1685.757,12,"left",8,"8.png","15soloseacaso.png",0,"SP","UP","SP",0,0,8
"1444",7321886,"lottery","trial",1425.41299999702,13,"right",9,"9.png","15soloseacaso.png",0,"SP","UP","UP",1,1,7.5
"1446",7321886,"lottery","trial",1144.16300000894,14,"left",6,"6.png","15soloseacaso.png",0,"SP","UP","SP",0,1,6
"1448",7321886,"lottery","trial",1894.07800000894,15,"left",15,"15.png","15soloseacaso.png",0,"SP","UP","SP",0,0,15
"1453",7321886,"coordination","trial",3469.01600000595,1,"right",15,"15soloseinsieme.png","15.png",0,"UP","SP","SP",0,0,15
"1455",7321886,"coordination","trial",1602.81399999998,2,"right",4,"4.png","15soloseinsieme.png",0,"SP","UP","UP",1,0,10.7712765957447
"1457",7321886,"coordination","trial",2698.03900000299,3,"left",5,"15soloseinsieme.png","5.png",0,"UP","SP","UP",1,0,9.8936170212766
"1459",7321886,"coordination","trial",1195.114,4,"right",8,"15soloseinsieme.png","8.png",0,"UP","SP","SP",0,1,8
"1461",7321886,"coordination","trial",1185.82999999999,5,"left",12,"12.png","15soloseinsieme.png",0,"SP","UP","SP",0,0,12
"1463",7321886,"coordination","trial",1167.52700000299,6,"right",14,"15soloseinsieme.png","14.png",0,"UP","SP","SP",0,0,14
"1465",7321886,"coordination","trial",1920.22100000596,7,"right",3,"3.png","15soloseinsieme.png",0,"SP","UP","UP",1,0,10.8510638297872
"1467",7321886,"coordination","trial",1311.01699999702,8,"left",11,"11.png","15soloseinsieme.png",0,"SP","UP","SP",0,0,11
"1469",7321886,"coordination","trial",1252.63700000002,9,"left",6,"6.png","15soloseinsieme.png",0,"SP","UP","SP",0,1,6
"1471",7321886,"coordination","trial",1447.25900000596,10,"left",10,"10.png","15soloseinsieme.png",0,"SP","UP","SP",0,0,10
"1473",7321886,"coordination","trial",1436.37699999999,11,"right",13,"15soloseinsieme.png","13.png",0,"UP","SP","SP",0,0,13
"1475",7321886,"coordination","trial",1367.76400000895,12,"left",7,"15soloseinsieme.png","7.png",0,"UP","SP","UP",1,1,7.42021276595745
"1477",7321886,"coordination","trial",1251.33100000894,13,"left",2,"15soloseinsieme.png","2.png",0,"UP","SP","UP",1,0,11.8085106382979
"1479",7321886,"coordination","trial",2148.00499999702,14,"right",1,"1.png","15soloseinsieme.png",0,"SP","UP","UP",1,NA,12.0478723404255
"1481",7321886,"coordination","trial",1235.96699999999,15,"left",9,"9.png","15soloseinsieme.png",0,"SP","UP","SP",0,0,9
"1486",7321886,"competition","trial",2686.33100000894,1,"right",11,"15solosesoli.png","11.png",0,"UP","SP","SP",0,0,11
"1488",7321886,"competition","trial",1362.17600000298,2,"left",13,"13.png","15solosesoli.png",0,"SP","UP","SP",0,0,13
"1490",7321886,"competition","trial",1082.59299999999,3,"left",15,"15.png","15solosesoli.png",0,"SP","UP","SP",0,0,15
"1492",7321886,"competition","trial",1229.75800000894,4,"right",2,"2.png","15solosesoli.png",0,"SP","UP","UP",1,0,5.42553191489362
"1494",7321886,"competition","trial",1252.63999999998,5,"left",5,"15solosesoli.png","5.png",0,"UP","SP","UP",1,1,7.26063829787234
"1496",7321886,"competition","trial",1152.40699999999,6,"left",10,"10.png","15solosesoli.png",0,"SP","UP","SP",0,0,10
"1498",7321886,"competition","trial",4635.43999999703,7,"right",9,"15solosesoli.png","9.png",0,"UP","SP","SP",0,0,9
"1500",7321886,"competition","trial",1319.59400000001,8,"left",6,"15solosesoli.png","6.png",0,"UP","SP","UP",1,0,7.42021276595745
"1502",7321886,"competition","trial",1602.22000000297,9,"left",3,"15solosesoli.png","3.png",0,"UP","SP","UP",1,0,5.74468085106383
"1504",7321886,"competition","trial",1002.22100000002,10,"right",14,"15solosesoli.png","14.png",0,"UP","SP","SP",0,0,14
"1506",7321886,"competition","trial",1610.37599999999,11,"left",1,"15solosesoli.png","1.png",0,"UP","SP","UP",1,NA,5.50531914893617
"1508",7321886,"competition","trial",1477.55200000596,12,"left",7,"7.png","15solosesoli.png",0,"SP","UP","SP",0,1,7
"1510",7321886,"competition","trial",1093.11700000893,13,"right",8,"15solosesoli.png","8.png",0,"UP","SP","SP",0,0,8
"1512",7321886,"competition","trial",2320.94,14,"left",12,"12.png","15solosesoli.png",0,"SP","UP","SP",0,0,12
"1514",7321886,"competition","trial",1283.85900000299,15,"left",4,"4.png","15solosesoli.png",0,"SP","UP","SP",0,1,4
"1521",7321883,"coordination","trial",2371.775,1,"left",10,"10.png","15soloseinsieme.png",0,"SP","UP","SP",0,0,10
"1523",7321883,"coordination","trial",2788.26300002384,2,"left",15,"15.png","15soloseinsieme.png",0,"SP","UP","SP",0,0,15
"1525",7321883,"coordination","trial",2262.905,3,"right",3,"3.png","15soloseinsieme.png",0,"SP","UP","UP",1,0,10.8510638297872
"1527",7321883,"coordination","trial",3164.73300001192,4,"right",14,"15soloseinsieme.png","14.png",0,"UP","SP","SP",0,0,14
"1529",7321883,"coordination","trial",4615.91100003576,5,"left",9,"9.png","15soloseinsieme.png",0,"SP","UP","SP",0,0,9
"1531",7321883,"coordination","trial",1837.31599999999,6,"left",4,"15soloseinsieme.png","4.png",0,"UP","SP","UP",1,0,10.7712765957447
"1533",7321883,"coordination","trial",1601.70800001192,7,"left",7,"7.png","15soloseinsieme.png",0,"SP","UP","SP",0,1,7
"1535",7321883,"coordination","trial",1995.90400003576,8,"left",5,"15soloseinsieme.png","5.png",0,"UP","SP","UP",1,0,9.8936170212766
"1537",7321883,"coordination","trial",1970.713,9,"right",11,"15soloseinsieme.png","11.png",0,"UP","SP","SP",0,0,11
"1539",7321883,"coordination","trial",1485.69899998808,10,"left",13,"13.png","15soloseinsieme.png",0,"SP","UP","SP",0,0,13
"1541",7321883,"coordination","trial",1851.75900000001,11,"left",1,"15soloseinsieme.png","1.png",0,"UP","SP","UP",1,NA,12.0478723404255
"1543",7321883,"coordination","trial",1611.27999998808,12,"left",6,"15soloseinsieme.png","6.png",0,"UP","SP","UP",1,0,9.41489361702128
"1545",7321883,"coordination","trial",2304.62300000001,13,"right",2,"2.png","15soloseinsieme.png",0,"SP","UP","UP",1,0,11.8085106382979
"1547",7321883,"coordination","trial",1108.66899999999,14,"left",8,"8.png","15soloseinsieme.png",0,"SP","UP","SP",0,0,8
"1549",7321883,"coordination","trial",1860.62700001193,15,"left",12,"12.png","15soloseinsieme.png",0,"SP","UP","SP",0,0,12
"1554",7321883,"lottery","trial",5862.601,1,"left",4,"4.png","15soloseacaso.png",0,"SP","UP","SP",0,0,4
"1556",7321883,"lottery","trial",1551.28300001191,2,"right",9,"15soloseacaso.png","9.png",0,"UP","SP","SP",0,0,9
"1558",7321883,"lottery","trial",2120.65700003576,3,"right",15,"15soloseacaso.png","15.png",0,"UP","SP","SP",0,0,15
"1560",7321883,"lottery","trial",1426.26500002384,4,"right",13,"15soloseacaso.png","13.png",0,"UP","SP","SP",0,0,13
"1562",7321883,"lottery","trial",1369.595,5,"right",2,"15soloseacaso.png","2.png",0,"UP","SP","SP",0,1,2
"1564",7321883,"lottery","trial",1126.78300003576,6,"right",5,"15soloseacaso.png","5.png",0,"UP","SP","SP",0,0,5
"1566",7321883,"lottery","trial",1360.62400003576,7,"left",10,"10.png","15soloseacaso.png",0,"SP","UP","SP",0,0,10
"1568",7321883,"lottery","trial",1295.236,8,"left",6,"6.png","15soloseacaso.png",0,"SP","UP","SP",0,0,6
"1570",7321883,"lottery","trial",2338.32400000001,9,"right",14,"15soloseacaso.png","14.png",0,"UP","SP","SP",0,0,14
"1572",7321883,"lottery","trial",1609.21700003576,10,"right",8,"15soloseacaso.png","8.png",0,"UP","SP","SP",0,0,8
"1574",7321883,"lottery","trial",1943.09200001192,11,"right",7,"15soloseacaso.png","7.png",0,"UP","SP","SP",0,0,7
"1576",7321883,"lottery","trial",2061.72899999999,12,"left",12,"12.png","15soloseacaso.png",0,"SP","UP","SP",0,0,12
"1578",7321883,"lottery","trial",2965.03400001192,13,"right",3,"15soloseacaso.png","3.png",0,"UP","SP","SP",0,0,3
"1580",7321883,"lottery","trial",2424.07799998808,14,"left",1,"15soloseacaso.png","1.png",0,"UP","SP","UP",1,NA,7.5
"1582",7321883,"lottery","trial",2253.69500001191,15,"right",11,"15soloseacaso.png","11.png",0,"UP","SP","SP",0,0,11
"1587",7321883,"competition","trial",3665.21000002383,1,"left",3,"15solosesoli.png","3.png",0,"UP","SP","UP",1,1,5.74468085106383
"1589",7321883,"competition","trial",1216.84099998808,2,"left",6,"6.png","15solosesoli.png",0,"SP","UP","SP",0,0,6
"1591",7321883,"competition","trial",1152.39500000002,3,"right",10,"15solosesoli.png","10.png",0,"UP","SP","SP",0,0,10
"1593",7321883,"competition","trial",1413.69000003577,4,"right",15,"15solosesoli.png","15.png",0,"UP","SP","SP",0,0,15
"1595",7321883,"competition","trial",1275.43200002384,5,"left",13,"15solosesoli.png","13.png",0,"UP","SP","UP",1,1,11.1702127659574
"1597",7321883,"competition","trial",2305.03900000002,6,"left",9,"9.png","15solosesoli.png",0,"SP","UP","SP",0,1,9
"1599",7321883,"competition","trial",1735.63400002386,7,"right",1,"1.png","15solosesoli.png",0,"SP","UP","UP",1,NA,5.50531914893617
"1601",7321883,"competition","trial",1583.90300003576,8,"left",14,"14.png","15solosesoli.png",0,"SP","UP","SP",0,1,14
"1603",7321883,"competition","trial",1252.723,9,"right",8,"8.png","15solosesoli.png",0,"SP","UP","UP",1,1,8.93617021276596
"1605",7321883,"competition","trial",883.377999988094,10,"left",12,"12.png","15solosesoli.png",0,"SP","UP","SP",0,0,12
"1607",7321883,"competition","trial",624.010000000009,11,"left",5,"5.png","15solosesoli.png",0,"SP","UP","SP",0,1,5
"1609",7321883,"competition","trial",539.600999988092,12,"right",7,"15solosesoli.png","7.png",0,"UP","SP","SP",0,0,7
"1611",7321883,"competition","trial",848.63800001191,13,"left",4,"15solosesoli.png","4.png",0,"UP","SP","UP",1,0,6.1436170212766
"1613",7321883,"competition","trial",908.378999999986,14,"right",11,"15solosesoli.png","11.png",0,"UP","SP","SP",0,0,11
"1615",7321883,"competition","trial",975.206000023842,15,"left",2,"2.png","15solosesoli.png",0,"SP","UP","SP",0,1,2
"1622",7321889,"coordination","trial",7139.654,1,"right",1,"1.png","15soloseinsieme.png",0,"SP","UP","UP",1,NA,12.0478723404255
"1624",7321889,"coordination","trial",4225.163,2,"right",11,"15soloseinsieme.png","11.png",0,"UP","SP","SP",0,0,11
"1626",7321889,"coordination","trial",2652.36999999702,3,"right",14,"15soloseinsieme.png","14.png",0,"UP","SP","SP",0,0,14
"1628",7321889,"coordination","trial",2997.63100000149,4,"right",9,"15soloseinsieme.png","9.png",0,"UP","SP","SP",0,1,9
"1630",7321889,"coordination","trial",3562.729,5,"right",10,"15soloseinsieme.png","10.png",0,"UP","SP","SP",0,0,10
"1632",7321889,"coordination","trial",2200.13100000149,6,"right",12,"15soloseinsieme.png","12.png",0,"UP","SP","SP",0,0,12
"1634",7321889,"coordination","trial",1816.33799999851,7,"right",8,"8.png","15soloseinsieme.png",0,"SP","UP","UP",1,1,7.02127659574468
"1636",7321889,"coordination","trial",1710.81899999702,8,"left",13,"13.png","15soloseinsieme.png",0,"SP","UP","SP",0,0,13
"1638",7321889,"coordination","trial",2136.98300000298,9,"right",15,"15soloseinsieme.png","15.png",0,"UP","SP","SP",0,0,15
"1640",7321889,"coordination","trial",7482.66299999999,10,"right",6,"6.png","15soloseinsieme.png",1,"SP","UP","UP",1,1,9.41489361702128
"1642",7321889,"coordination","trial",6713.28399999702,11,"left",2,"15soloseinsieme.png","2.png",0,"UP","SP","UP",1,0,11.8085106382979
"1644",7321889,"coordination","trial",2337.93100000298,12,"left",4,"4.png","15soloseinsieme.png",0,"SP","UP","SP",0,0,4
"1646",7321889,"coordination","trial",2152.023,13,"right",3,"15soloseinsieme.png","3.png",0,"UP","SP","SP",0,1,3
"1648",7321889,"coordination","trial",1553.29599999999,14,"right",7,"15soloseinsieme.png","7.png",0,"UP","SP","SP",0,1,7
"1650",7321889,"coordination","trial",3140.08,15,"left",5,"5.png","15soloseinsieme.png",0,"SP","UP","SP",0,0,5
"1655",7321889,"competition","trial",14152.3509999985,1,"left",4,"15solosesoli.png","4.png",1,"UP","SP","UP",1,0,6.1436170212766
"1657",7321889,"competition","trial",2101.21499999701,2,"right",11,"15solosesoli.png","11.png",0,"UP","SP","SP",0,0,11
"1659",7321889,"competition","trial",3607.70000000001,3,"right",2,"2.png","15solosesoli.png",0,"SP","UP","UP",1,0,5.42553191489362
"1661",7321889,"competition","trial",1377.13900000298,4,"left",15,"15.png","15solosesoli.png",0,"SP","UP","SP",0,0,15
"1663",7321889,"competition","trial",3857.36000000148,5,"right",8,"15solosesoli.png","8.png",0,"UP","SP","SP",0,0,8
"1665",7321889,"competition","trial",1918.74200000148,6,"right",7,"15solosesoli.png","7.png",0,"UP","SP","SP",0,1,7
"1667",7321889,"competition","trial",1651.80099999701,7,"left",12,"12.png","15solosesoli.png",0,"SP","UP","SP",0,0,12
"1669",7321889,"competition","trial",1743.88399999702,8,"left",14,"14.png","15solosesoli.png",0,"SP","UP","SP",0,0,14
"1671",7321889,"competition","trial",3013.0610000015,9,"left",13,"13.png","15solosesoli.png",0,"SP","UP","SP",0,0,13
"1673",7321889,"competition","trial",2487.962,10,"left",10,"10.png","15solosesoli.png",0,"SP","UP","SP",0,0,10
"1675",7321889,"competition","trial",1703.61499999999,11,"left",1,"15solosesoli.png","1.png",0,"UP","SP","UP",1,NA,5.50531914893617
"1677",7321889,"competition","trial",4432.5450000015,12,"left",5,"15solosesoli.png","5.png",0,"UP","SP","UP",1,0,7.26063829787234
"1679",7321889,"competition","trial",4539.37900000298,13,"right",9,"15solosesoli.png","9.png",0,"UP","SP","SP",0,0,9
"1681",7321889,"competition","trial",11774.071999997,14,"left",3,"15solosesoli.png","3.png",1,"UP","SP","UP",1,0,5.74468085106383
"1683",7321889,"competition","trial",3299.91100000299,15,"left",6,"15solosesoli.png","6.png",0,"UP","SP","UP",1,0,7.42021276595745
"1688",7321889,"lottery","trial",14891.8600000015,1,"left",8,"15soloseacaso.png","8.png",1,"UP","SP","UP",1,0,7.5
"1690",7321889,"lottery","trial",3457.0370000015,2,"right",2,"15soloseacaso.png","2.png",0,"UP","SP","SP",0,0,2
"1692",7321889,"lottery","trial",4208.90600000299,3,"left",13,"13.png","15soloseacaso.png",0,"SP","UP","SP",0,0,13
"1694",7321889,"lottery","trial",3665.37899999999,4,"left",11,"15soloseacaso.png","11.png",0,"UP","SP","UP",1,1,7.5
"1696",7321889,"lottery","trial",3031.60600000148,5,"left",15,"15.png","15soloseacaso.png",0,"SP","UP","SP",0,0,15
"1698",7321889,"lottery","trial",1677.31599999999,6,"left",12,"12.png","15soloseacaso.png",0,"SP","UP","SP",0,1,12
"1700",7321889,"lottery","trial",2863.52900000001,7,"left",4,"15soloseacaso.png","4.png",0,"UP","SP","UP",1,0,7.5
"1702",7321889,"lottery","trial",2705.73699999999,8,"left",1,"1.png","15soloseacaso.png",0,"SP","UP","SP",0,NA,1
"1704",7321889,"lottery","trial",2471.94300000003,9,"right",6,"6.png","15soloseacaso.png",0,"SP","UP","UP",1,0,7.5
"1706",7321889,"lottery","trial",1861.929,10,"right",10,"15soloseacaso.png","10.png",0,"UP","SP","SP",0,0,10
"1708",7321889,"lottery","trial",1901.31199999852,11,"right",3,"3.png","15soloseacaso.png",0,"SP","UP","UP",1,1,7.5
"1710",7321889,"lottery","trial",1294.0690000015,12,"left",9,"9.png","15soloseacaso.png",0,"SP","UP","SP",0,1,9
"1712",7321889,"lottery","trial",3481.30699999703,13,"left",7,"15soloseacaso.png","7.png",0,"UP","SP","UP",1,0,7.5
"1714",7321889,"lottery","trial",1902.61300000298,14,"right",5,"5.png","15soloseacaso.png",0,"SP","UP","UP",1,0,7.5
"1716",7321889,"lottery","trial",1283.88899999851,15,"left",14,"14.png","15soloseacaso.png",0,"SP","UP","SP",0,0,14
"1723",7321892,"coordination","trial",6586.92600001192,1,"right",8,"8.png","15soloseinsieme.png",0,"SP","UP","UP",1,0,7.02127659574468
"1725",7321892,"coordination","trial",6839.70600002384,2,"right",13,"15soloseinsieme.png","13.png",0,"UP","SP","SP",0,1,13
"1727",7321892,"coordination","trial",7465.969,3,"right",5,"5.png","15soloseinsieme.png",1,"SP","UP","UP",1,0,9.8936170212766
"1729",7321892,"coordination","trial",3649.99400004769,4,"right",15,"15soloseinsieme.png","15.png",0,"UP","SP","SP",0,0,15
"1731",7321892,"coordination","trial",2705.81600000001,5,"right",2,"2.png","15soloseinsieme.png",0,"SP","UP","UP",1,0,11.8085106382979
"1733",7321892,"coordination","trial",4275.89999999999,6,"right",9,"9.png","15soloseinsieme.png",0,"SP","UP","UP",1,0,6.46276595744681
"1735",7321892,"coordination","trial",2598.44200003576,7,"left",4,"15soloseinsieme.png","4.png",0,"UP","SP","UP",1,0,10.7712765957447
"1737",7321892,"coordination","trial",2035.57000000001,8,"left",6,"15soloseinsieme.png","6.png",0,"UP","SP","UP",1,0,9.41489361702128
"1739",7321892,"coordination","trial",2605.61699999998,9,"left",14,"14.png","15soloseinsieme.png",0,"SP","UP","SP",0,0,14
"1741",7321892,"coordination","trial",2094.79200001192,10,"left",12,"15soloseinsieme.png","12.png",0,"UP","SP","UP",1,0,4.70744680851064
"1743",7321892,"coordination","trial",3433.78100002384,11,"right",10,"10.png","15soloseinsieme.png",0,"SP","UP","UP",1,0,4.46808510638298
"1745",7321892,"coordination","trial",1835.68400003576,12,"right",1,"1.png","15soloseinsieme.png",0,"SP","UP","UP",1,NA,12.0478723404255
"1747",7321892,"coordination","trial",6512.35100002385,13,"right",11,"11.png","15soloseinsieme.png",0,"SP","UP","UP",1,0,5.34574468085106
"1749",7321892,"coordination","trial",2847.49400004768,14,"left",7,"15soloseinsieme.png","7.png",0,"UP","SP","UP",1,0,7.42021276595745
"1751",7321892,"coordination","trial",2235.73100002384,15,"right",3,"3.png","15soloseinsieme.png",0,"SP","UP","UP",1,0,10.8510638297872
"1756",7321892,"competition","trial",6453.77900003576,1,"left",4,"4.png","15solosesoli.png",0,"SP","UP","SP",0,0,4
"1758",7321892,"competition","trial",2495.353,2,"left",14,"14.png","15solosesoli.png",0,"SP","UP","SP",0,0,14
"1760",7321892,"competition","trial",8860.32300003576,3,"left",5,"5.png","15solosesoli.png",1,"SP","UP","SP",0,0,5
"1762",7321892,"competition","trial",2328.83300004769,4,"left",13,"13.png","15solosesoli.png",0,"SP","UP","SP",0,0,13
"1764",7321892,"competition","trial",11725.319,5,"right",10,"15solosesoli.png","10.png",1,"UP","SP","SP",0,1,10
"1766",7321892,"competition","trial",2558.19999999998,6,"left",8,"15solosesoli.png","8.png",0,"UP","SP","UP",1,1,8.93617021276596
"1768",7321892,"competition","trial",2781.17300001191,7,"left",12,"12.png","15solosesoli.png",0,"SP","UP","SP",0,0,12
"1770",7321892,"competition","trial",2452.90900001192,8,"left",9,"15solosesoli.png","9.png",0,"UP","SP","UP",1,0,9.73404255319149
"1772",7321892,"competition","trial",2789.446,9,"left",6,"6.png","15solosesoli.png",0,"SP","UP","SP",0,0,6
"1774",7321892,"competition","trial",2687.11800004769,10,"left",3,"3.png","15solosesoli.png",0,"SP","UP","SP",0,1,3
"1776",7321892,"competition","trial",2303.37900002385,11,"right",15,"15solosesoli.png","15.png",0,"UP","SP","SP",0,0,15
"1778",7321892,"competition","trial",6012.48000000004,12,"left",7,"7.png","15solosesoli.png",0,"SP","UP","SP",0,0,7
"1780",7321892,"competition","trial",2788.78000004767,13,"right",1,"15solosesoli.png","1.png",0,"UP","SP","SP",0,NA,1
"1782",7321892,"competition","trial",1734.93300003576,14,"left",2,"15solosesoli.png","2.png",0,"UP","SP","UP",1,1,5.42553191489362
"1784",7321892,"competition","trial",2168.85600003577,15,"right",11,"15solosesoli.png","11.png",0,"UP","SP","SP",0,0,11
"1789",7321892,"lottery","trial",2839.55100000004,1,"right",14,"15soloseacaso.png","14.png",0,"UP","SP","SP",0,0,14
"1791",7321892,"lottery","trial",2338.43399999998,2,"right",2,"2.png","15soloseacaso.png",0,"SP","UP","UP",1,0,7.5
"1793",7321892,"lottery","trial",3623.78499999997,3,"left",6,"6.png","15soloseacaso.png",0,"SP","UP","SP",0,0,6
"1795",7321892,"lottery","trial",2486.647,4,"left",15,"15.png","15soloseacaso.png",0,"SP","UP","SP",0,0,15
"1797",7321892,"lottery","trial",3731.50399999999,5,"right",4,"4.png","15soloseacaso.png",0,"SP","UP","UP",1,0,7.5
"1799",7321892,"lottery","trial",1586.45500003576,6,"left",10,"10.png","15soloseacaso.png",0,"SP","UP","SP",0,0,10
"1801",7321892,"lottery","trial",2745.33900000001,7,"left",11,"11.png","15soloseacaso.png",0,"SP","UP","SP",0,0,11
"1803",7321892,"lottery","trial",1920.76700000002,8,"left",8,"15soloseacaso.png","8.png",0,"UP","SP","UP",1,1,7.5
"1805",7321892,"lottery","trial",1969.56000003577,9,"left",7,"7.png","15soloseacaso.png",0,"SP","UP","SP",0,0,7
"1807",7321892,"lottery","trial",1362.51100002383,10,"left",13,"13.png","15soloseacaso.png",0,"SP","UP","SP",0,0,13
"1809",7321892,"lottery","trial",6535.16100004769,11,"right",3,"3.png","15soloseacaso.png",0,"SP","UP","UP",1,0,7.5
"1811",7321892,"lottery","trial",1620.12500000003,12,"right",1,"1.png","15soloseacaso.png",0,"SP","UP","UP",1,NA,7.5
"1813",7321892,"lottery","trial",4625.68000001193,13,"left",5,"5.png","15soloseacaso.png",0,"SP","UP","SP",0,1,5
"1815",7321892,"lottery","trial",1769.38100003576,14,"right",9,"15soloseacaso.png","9.png",0,"UP","SP","SP",0,1,9
"1817",7321892,"lottery","trial",1843.07000003578,15,"left",12,"12.png","15soloseacaso.png",0,"SP","UP","SP",0,0,12
"1824",7321885,"coordination","trial",3300.92000000447,1,"right",5,"15soloseinsieme.png","5.png",0,"UP","SP","SP",0,1,5
"1826",7321885,"coordination","trial",5155.09700000149,2,"left",12,"15soloseinsieme.png","12.png",0,"UP","SP","UP",1,1,4.70744680851064
"1828",7321885,"coordination","trial",5787.20500000596,3,"right",1,"1.png","15soloseinsieme.png",0,"SP","UP","UP",1,NA,12.0478723404255
"1830",7321885,"coordination","trial",2252.82900000596,4,"left",14,"14.png","15soloseinsieme.png",0,"SP","UP","SP",0,0,14
"1832",7321885,"coordination","trial",2769.969,5,"left",13,"13.png","15soloseinsieme.png",0,"SP","UP","SP",0,1,13
"1834",7321885,"coordination","trial",2321.89600000001,6,"left",2,"15soloseinsieme.png","2.png",0,"UP","SP","UP",1,0,11.8085106382979
"1836",7321885,"coordination","trial",4567.92700000149,7,"left",8,"8.png","15soloseinsieme.png",0,"SP","UP","SP",0,1,8
"1838",7321885,"coordination","trial",3490.85699999999,8,"left",10,"15soloseinsieme.png","10.png",0,"UP","SP","UP",1,0,4.46808510638298
"1840",7321885,"coordination","trial",2269.50900000001,9,"left",7,"15soloseinsieme.png","7.png",0,"UP","SP","UP",1,0,7.42021276595745
"1842",7321885,"coordination","trial",2011.60000000001,10,"right",15,"15soloseinsieme.png","15.png",0,"UP","SP","SP",0,0,15
"1844",7321885,"coordination","trial",2237.84900000149,11,"right",3,"3.png","15soloseinsieme.png",0,"SP","UP","UP",1,0,10.8510638297872
"1846",7321885,"coordination","trial",1836.731,12,"left",4,"15soloseinsieme.png","4.png",0,"UP","SP","UP",1,0,10.7712765957447
"1848",7321885,"coordination","trial",1868.95500000595,13,"right",11,"15soloseinsieme.png","11.png",0,"UP","SP","SP",0,1,11
"1850",7321885,"coordination","trial",1631.27300000447,14,"right",9,"9.png","15soloseinsieme.png",0,"SP","UP","UP",1,1,6.46276595744681
"1852",7321885,"coordination","trial",2405.18399999999,15,"left",6,"15soloseinsieme.png","6.png",0,"UP","SP","UP",1,1,9.41489361702128
"1857",7321885,"competition","trial",447.903000001505,1,"right",2,"15solosesoli.png","2.png",0,"UP","SP","SP",0,1,2
"1859",7321885,"competition","trial",5460.70200000299,2,"left",4,"15solosesoli.png","4.png",0,"UP","SP","UP",1,0,6.1436170212766
"1861",7321885,"competition","trial",1318.96900000595,3,"right",5,"15solosesoli.png","5.png",0,"UP","SP","SP",0,1,5
"1863",7321885,"competition","trial",1286.05200000003,4,"right",3,"3.png","15solosesoli.png",0,"SP","UP","UP",1,1,5.74468085106383
"1865",7321885,"competition","trial",1902.01200000299,5,"right",10,"10.png","15solosesoli.png",0,"SP","UP","UP",1,1,10.9308510638298
"1867",7321885,"competition","trial",1309.12700000298,6,"left",11,"11.png","15solosesoli.png",0,"SP","UP","SP",0,1,11
"1869",7321885,"competition","trial",2980.67900000597,7,"right",13,"13.png","15solosesoli.png",0,"SP","UP","UP",1,0,11.1702127659574
"1871",7321885,"competition","trial",3606.23700000299,8,"right",6,"15solosesoli.png","6.png",0,"UP","SP","SP",0,0,6
"1873",7321885,"competition","trial",9892.53099999999,9,"right",9,"15solosesoli.png","9.png",1,"UP","SP","SP",0,1,9
"1875",7321885,"competition","trial",4768.77900000149,10,"left",14,"14.png","15solosesoli.png",0,"SP","UP","SP",0,1,14
"1877",7321885,"competition","trial",1853.90800000002,11,"left",8,"15solosesoli.png","8.png",0,"UP","SP","UP",1,1,8.93617021276596
"1879",7321885,"competition","trial",1300.95900000297,12,"right",15,"15solosesoli.png","15.png",0,"UP","SP","SP",0,0,15
"1881",7321885,"competition","trial",2120.91400000447,13,"right",12,"12.png","15solosesoli.png",0,"SP","UP","UP",1,1,10.8510638297872
"1883",7321885,"competition","trial",2054.39700000003,14,"left",1,"15solosesoli.png","1.png",0,"UP","SP","UP",1,NA,5.50531914893617
"1885",7321885,"competition","trial",2538.65800000448,15,"right",7,"15solosesoli.png","7.png",0,"UP","SP","SP",0,0,7
"1890",7321885,"lottery","trial",3099.6750000015,1,"left",6,"6.png","15soloseacaso.png",0,"SP","UP","SP",0,0,6
"1892",7321885,"lottery","trial",6156.93299999999,2,"left",13,"13.png","15soloseacaso.png",0,"SP","UP","SP",0,0,13
"1894",7321885,"lottery","trial",3922.76200000299,3,"left",2,"15soloseacaso.png","2.png",0,"UP","SP","UP",1,0,7.5
"1896",7321885,"lottery","trial",2817.78599999999,4,"left",12,"12.png","15soloseacaso.png",0,"SP","UP","SP",0,1,12
"1898",7321885,"lottery","trial",3366.65700000446,5,"left",3,"15soloseacaso.png","3.png",0,"UP","SP","UP",1,0,7.5
"1900",7321885,"lottery","trial",2947.61900000446,6,"left",4,"4.png","15soloseacaso.png",0,"SP","UP","SP",0,1,4
"1902",7321885,"lottery","trial",1227.05000000447,7,"left",8,"8.png","15soloseacaso.png",0,"SP","UP","SP",0,0,8
