"","sub","game","Screen","rt","trial","Object.Name","sp","left.column","right.column","rt.out","left.response","right.response","answer","response","switch","payoff"
"1",8624056,"coordination","trial",2987,1,"right",8,"8.png","15soloseinsieme.png",0,"SP","UP","UP",1,0,10.0523560209424
"2",8624056,"coordination","trial",1418,2,"left",3,"15soloseinsieme.png","3.png",0,"UP","SP","UP",1,0,13.979057591623
"3",8624056,"coordination","trial",3005,3,"left",15,"15.png","15soloseinsieme.png",0,"SP","UP","SP",0,0,15
"4",8624056,"coordination","trial",1036,4,"right",2,"2.png","15soloseinsieme.png",0,"SP","UP","UP",1,0,13.979057591623
"5",8624056,"coordination","trial",3155,5,"left",11,"11.png","15soloseinsieme.png",0,"SP","UP","SP",0,1,11
"6",8624056,"coordination","trial",1203,6,"left",10,"15soloseinsieme.png","10.png",0,"UP","SP","UP",1,0,6.91099476439791
"7",8624056,"coordination","trial",869,7,"left",7,"15soloseinsieme.png","7.png",0,"UP","SP","UP",1,0,10.8376963350785
"8",8624056,"coordination","trial",1286,8,"left",13,"13.png","15soloseinsieme.png",0,"SP","UP","SP",0,0,13
"9",8624056,"coordination","trial",1019,9,"right",6,"6.png","15soloseinsieme.png",0,"SP","UP","UP",1,0,12.2513089005236
"10",8624056,"coordination","trial",969,10,"right",9,"9.png","15soloseinsieme.png",0,"SP","UP","UP",1,0,8.87434554973822
"11",8624056,"coordination","trial",1501,11,"left",1,"15soloseinsieme.png","1.png",0,"UP","SP","UP",1,NA,14.1361256544503
"12",8624056,"coordination","trial",953,12,"right",5,"5.png","15soloseinsieme.png",0,"SP","UP","UP",1,0,13.1937172774869
"13",8624056,"coordination","trial",1136,13,"left",12,"12.png","15soloseinsieme.png",0,"SP","UP","SP",0,0,12
"14",8624056,"coordination","trial",887,14,"left",4,"15soloseinsieme.png","4.png",0,"UP","SP","UP",1,0,13.979057591623
"15",8624056,"coordination","trial",1153,15,"left",14,"14.png","15soloseinsieme.png",0,"SP","UP","SP",0,0,14
"16",8624056,"competition","trial",15705,1,"left",3,"15solosesoli.png","3.png",1,"UP","SP","UP",1,0,6.20418848167539
"17",8624056,"competition","trial",870,2,"left",9,"9.png","15solosesoli.png",0,"SP","UP","SP",0,0,9
"18",8624056,"competition","trial",1152,3,"right",8,"15solosesoli.png","8.png",0,"UP","SP","SP",0,1,8
"19",8624056,"competition","trial",1519,4,"right",6,"15solosesoli.png","6.png",0,"UP","SP","SP",0,0,6
"20",8624056,"competition","trial",787,5,"right",2,"2.png","15solosesoli.png",0,"SP","UP","UP",1,0,5.96858638743455
"21",8624056,"competition","trial",1337,6,"right",4,"4.png","15solosesoli.png",0,"SP","UP","UP",1,0,7.46073298429319
"22",8624056,"competition","trial",1236,7,"left",15,"15.png","15solosesoli.png",0,"SP","UP","SP",0,0,15
"23",8624056,"competition","trial",1235,8,"right",11,"15solosesoli.png","11.png",0,"UP","SP","SP",0,0,11
"24",8624056,"competition","trial",702,9,"left",14,"14.png","15solosesoli.png",0,"SP","UP","SP",0,0,14
"25",8624056,"competition","trial",986,10,"left",1,"15solosesoli.png","1.png",0,"UP","SP","UP",1,NA,5.96858638743455
"26",8624056,"competition","trial",1003,11,"left",12,"12.png","15solosesoli.png",0,"SP","UP","SP",0,0,12
"27",8624056,"competition","trial",6188,12,"right",5,"15solosesoli.png","5.png",0,"UP","SP","SP",0,1,5
"28",8624056,"competition","trial",802.000000000015,13,"left",13,"13.png","15solosesoli.png",0,"SP","UP","SP",0,0,13
"29",8624056,"competition","trial",2104,14,"left",7,"15solosesoli.png","7.png",0,"UP","SP","UP",1,1,9.26701570680628
"30",8624056,"competition","trial",853,15,"left",10,"10.png","15solosesoli.png",0,"SP","UP","SP",0,0,10
"31",8624056,"lottery","trial",3453.00000000001,1,"left",11,"11.png","15soloseacaso.png",0,"SP","UP","SP",0,0,11
"32",8624056,"lottery","trial",685,2,"left",2,"15soloseacaso.png","2.png",0,"UP","SP","UP",1,0,7.5
"33",8624056,"lottery","trial",5410,3,"right",9,"9.png","15soloseacaso.png",0,"SP","UP","UP",1,1,7.5
"34",8624056,"lottery","trial",819,4,"right",15,"15soloseacaso.png","15.png",0,"UP","SP","SP",0,0,15
"35",8624056,"lottery","trial",4037,5,"right",8,"15soloseacaso.png","8.png",0,"UP","SP","SP",0,1,8
"36",8624056,"lottery","trial",703.000000000015,6,"right",5,"5.png","15soloseacaso.png",0,"SP","UP","UP",1,0,7.5
"37",8624056,"lottery","trial",1452,7,"right",3,"3.png","15soloseacaso.png",0,"SP","UP","UP",1,0,7.5
"38",8624056,"lottery","trial",920,8,"right",12,"15soloseacaso.png","12.png",0,"UP","SP","SP",0,0,12
"39",8624056,"lottery","trial",1789,9,"left",7,"15soloseacaso.png","7.png",0,"UP","SP","UP",1,0,7.5
"40",8624056,"lottery","trial",1086,10,"left",4,"15soloseacaso.png","4.png",0,"UP","SP","UP",1,0,7.5
"41",8624056,"lottery","trial",853,11,"right",1,"1.png","15soloseacaso.png",0,"SP","UP","UP",1,NA,7.5
"42",8624056,"lottery","trial",852,12,"right",10,"15soloseacaso.png","10.png",0,"UP","SP","SP",0,1,10
"43",8624056,"lottery","trial",720,13,"right",14,"15soloseacaso.png","14.png",0,"UP","SP","SP",0,0,14
"44",8624056,"lottery","trial",1336,14,"right",6,"6.png","15soloseacaso.png",0,"SP","UP","UP",1,0,7.5
"45",8624056,"lottery","trial",719,15,"left",13,"13.png","15soloseacaso.png",0,"SP","UP","SP",0,0,13
"46",8624014,"competition","trial",14047.1359999881,1,"left",6,"6.png","15solosesoli.png",1,"SP","UP","SP",0,1,6
"47",8624014,"competition","trial",5215.51000000001,2,"left",4,"15solosesoli.png","4.png",0,"UP","SP","UP",1,0,7.46073298429319
"48",8624014,"competition","trial",3309.14699999404,3,"right",13,"15solosesoli.png","13.png",0,"UP","SP","SP",0,0,13
"49",8624014,"competition","trial",3883.063,4,"left",12,"12.png","15solosesoli.png",0,"SP","UP","SP",0,1,12
"50",8624014,"competition","trial",3054.172,5,"right",5,"5.png","15solosesoli.png",0,"SP","UP","UP",1,0,7.30366492146597
"51",8624014,"competition","trial",2562.388,6,"right",3,"3.png","15solosesoli.png",0,"SP","UP","UP",1,0,6.20418848167539
"52",8624014,"competition","trial",3069.06699998213,7,"left",2,"15solosesoli.png","2.png",0,"UP","SP","UP",1,0,5.96858638743455
"53",8624014,"competition","trial",1702.26399998808,8,"left",1,"15solosesoli.png","1.png",0,"UP","SP","UP",1,NA,5.96858638743455
"54",8624014,"competition","trial",3823.889,9,"left",8,"8.png","15solosesoli.png",0,"SP","UP","SP",0,0,8
"55",8624014,"competition","trial",3523.11199999404,10,"right",14,"15solosesoli.png","14.png",0,"UP","SP","SP",0,0,14
"56",8624014,"competition","trial",2292.736,11,"right",9,"9.png","15solosesoli.png",0,"SP","UP","UP",1,1,10.7591623036649
"57",8624014,"competition","trial",2907.761,12,"right",11,"11.png","15solosesoli.png",0,"SP","UP","UP",1,1,11.2303664921466
"58",8624014,"competition","trial",2430.09799998211,13,"left",15,"15.png","15solosesoli.png",0,"SP","UP","SP",0,0,15
"59",8624014,"competition","trial",3763.93199998808,14,"right",7,"15solosesoli.png","7.png",0,"UP","SP","SP",0,0,7
"60",8624014,"competition","trial",1816.94100000001,15,"right",10,"15solosesoli.png","10.png",0,"UP","SP","SP",0,1,10
"61",8624014,"coordination","trial",5828.87499999403,1,"left",6,"15soloseinsieme.png","6.png",0,"UP","SP","UP",1,0,12.2513089005236
"62",8624014,"coordination","trial",2866.85100000001,2,"left",9,"9.png","15soloseinsieme.png",0,"SP","UP","SP",0,1,9
"63",8624014,"coordination","trial",2143.03899998212,3,"right",8,"8.png","15soloseinsieme.png",0,"SP","UP","UP",1,0,10.0523560209424
"64",8624014,"coordination","trial",3198.238,4,"right",11,"15soloseinsieme.png","11.png",0,"UP","SP","SP",0,0,11
"65",8624014,"coordination","trial",1116.42399999998,5,"right",4,"4.png","15soloseinsieme.png",0,"SP","UP","UP",1,0,13.979057591623
"66",8624014,"coordination","trial",1154.68599999404,6,"right",2,"2.png","15soloseinsieme.png",0,"SP","UP","UP",1,0,13.979057591623
"67",8624014,"coordination","trial",1750.60100000001,7,"left",3,"15soloseinsieme.png","3.png",0,"UP","SP","UP",1,0,13.979057591623
"68",8624014,"coordination","trial",1531.65299997616,8,"right",10,"15soloseinsieme.png","10.png",0,"UP","SP","SP",0,0,10
"69",8624014,"coordination","trial",1185.23799997615,9,"right",13,"13.png","15soloseinsieme.png",0,"SP","UP","UP",1,0,5.34031413612565
"70",8624014,"coordination","trial",918.260000000009,10,"right",1,"1.png","15soloseinsieme.png",0,"SP","UP","UP",1,NA,14.1361256544503
"71",8624014,"coordination","trial",1381.07899997616,11,"right",15,"15soloseinsieme.png","15.png",0,"UP","SP","SP",0,0,15
"72",8624014,"coordination","trial",1761.40999998807,12,"left",5,"15soloseinsieme.png","5.png",0,"UP","SP","UP",1,0,13.1937172774869
"73",8624014,"coordination","trial",5567.20799999405,13,"left",14,"14.png","15soloseinsieme.png",0,"SP","UP","SP",0,1,14
"74",8624014,"coordination","trial",1241.54699997616,14,"left",12,"15soloseinsieme.png","12.png",0,"UP","SP","UP",1,1,5.49738219895288
"75",8624014,"coordination","trial",1052.99599997615,15,"left",7,"15soloseinsieme.png","7.png",0,"UP","SP","UP",1,0,10.8376963350785
"76",8624014,"lottery","trial",2666.38600000003,1,"right",5,"5.png","15soloseacaso.png",0,"SP","UP","UP",1,0,7.5
"77",8624014,"lottery","trial",12211.885,2,"left",6,"6.png","15soloseacaso.png",0,"SP","UP","SP",0,1,6
"78",8624014,"lottery","trial",953.046999994025,3,"left",1,"15soloseacaso.png","1.png",0,"UP","SP","UP",1,NA,7.5
"79",8624014,"lottery","trial",2235.95199999405,4,"right",8,"8.png","15soloseacaso.png",0,"SP","UP","UP",1,0,7.5
"80",8624014,"lottery","trial",2292.95799997615,5,"left",11,"11.png","15soloseacaso.png",0,"SP","UP","SP",0,0,11
"81",8624014,"lottery","trial",2932.84800000003,6,"right",13,"15soloseacaso.png","13.png",0,"UP","SP","SP",0,0,13
"82",8624014,"lottery","trial",2015.75200000001,7,"left",12,"12.png","15soloseacaso.png",0,"SP","UP","SP",0,0,12
"83",8624014,"lottery","trial",1976.37499998807,8,"left",15,"15soloseacaso.png","15.png",0,"UP","SP","UP",1,1,7.5
"84",8624014,"lottery","trial",1175.29399999999,9,"left",2,"15soloseacaso.png","2.png",0,"UP","SP","UP",1,0,7.5
"85",8624014,"lottery","trial",1270.71899997615,10,"left",10,"10.png","15soloseacaso.png",0,"SP","UP","SP",0,1,10
"86",8624014,"lottery","trial",1585.61599998211,11,"right",9,"9.png","15soloseacaso.png",0,"SP","UP","UP",1,0,7.5
"87",8624014,"lottery","trial",2691.60599998213,12,"left",14,"14.png","15soloseacaso.png",0,"SP","UP","SP",0,0,14
"88",8624014,"lottery","trial",989.241999982129,13,"left",3,"15soloseacaso.png","3.png",0,"UP","SP","UP",1,0,7.5
"89",8624014,"lottery","trial",1494.28299999403,14,"right",7,"7.png","15soloseacaso.png",0,"SP","UP","UP",1,1,7.5
"90",8624014,"lottery","trial",1419.78499997617,15,"left",4,"15soloseacaso.png","4.png",0,"UP","SP","UP",1,0,7.5
"91",8624087,"coordination","trial",11072.243,1,"right",4,"4.png","15soloseinsieme.png",0,"SP","UP","UP",1,0,13.979057591623
"92",8624087,"coordination","trial",9379.36699999404,2,"left",8,"15soloseinsieme.png","8.png",0,"UP","SP","UP",1,0,10.0523560209424
"93",8624087,"coordination","trial",8914.87600000298,3,"right",9,"9.png","15soloseinsieme.png",0,"SP","UP","UP",1,0,8.87434554973822
"94",8624087,"coordination","trial",8474.46000000596,4,"left",11,"15soloseinsieme.png","11.png",0,"UP","SP","UP",1,0,6.83246073298429
"95",8624087,"coordination","trial",3899.511,5,"right",13,"13.png","15soloseinsieme.png",0,"SP","UP","UP",1,0,5.34031413612565
"96",8624087,"coordination","trial",5279.56000000298,6,"right",7,"7.png","15soloseinsieme.png",0,"SP","UP","UP",1,0,10.8376963350785
"97",8624087,"coordination","trial",11436.836,7,"left",12,"15soloseinsieme.png","12.png",0,"UP","SP","UP",1,0,5.49738219895288
"98",8624087,"coordination","trial",3370.06600000596,8,"left",2,"15soloseinsieme.png","2.png",0,"UP","SP","UP",1,0,13.979057591623
"99",8624087,"coordination","trial",50809.941,9,"right",15,"15soloseinsieme.png","15.png",1,"UP","SP","SP",0,1,15
"100",8624087,"coordination","trial",7462.75599999703,10,"left",10,"15soloseinsieme.png","10.png",0,"UP","SP","UP",1,0,6.91099476439791
"101",8624087,"coordination","trial",2687.96200000597,11,"right",5,"5.png","15soloseinsieme.png",0,"SP","UP","UP",1,0,13.1937172774869
"102",8624087,"coordination","trial",5673.32300000297,12,"left",14,"15soloseinsieme.png","14.png",0,"UP","SP","UP",1,0,4.3979057591623
"103",8624087,"coordination","trial",2491.16,13,"right",3,"3.png","15soloseinsieme.png",0,"SP","UP","UP",1,0,13.979057591623
"104",8624087,"coordination","trial",2168.83799999702,14,"right",6,"6.png","15soloseinsieme.png",0,"SP","UP","UP",1,0,12.2513089005236
"105",8624087,"coordination","trial",3793.70399999703,15,"left",1,"15soloseinsieme.png","1.png",0,"UP","SP","UP",1,NA,14.1361256544503
"106",8624087,"lottery","trial",12233.402,1,"left",6,"15soloseacaso.png","6.png",0,"UP","SP","UP",1,0,7.5
"107",8624087,"lottery","trial",8904.99600000298,2,"left",11,"11.png","15soloseacaso.png",0,"SP","UP","SP",0,0,11
"108",8624087,"lottery","trial",5063.209,3,"left",12,"12.png","15soloseacaso.png",0,"SP","UP","SP",0,0,12
"109",8624087,"lottery","trial",3573.48399999403,4,"left",4,"15soloseacaso.png","4.png",0,"UP","SP","UP",1,0,7.5
"110",8624087,"lottery","trial",2693.40899999702,5,"right",14,"15soloseacaso.png","14.png",0,"UP","SP","SP",0,0,14
"111",8624087,"lottery","trial",3499.09899999999,6,"left",3,"15soloseacaso.png","3.png",0,"UP","SP","UP",1,0,7.5
"112",8624087,"lottery","trial",2308.24300000299,7,"left",1,"15soloseacaso.png","1.png",0,"UP","SP","UP",1,NA,7.5
"113",8624087,"lottery","trial",2824.69199999404,8,"left",15,"15.png","15soloseacaso.png",0,"SP","UP","SP",0,0,15
"114",8624087,"lottery","trial",3920.595,9,"right",2,"2.png","15soloseacaso.png",0,"SP","UP","UP",1,0,7.5
"115",8624087,"lottery","trial",24637.424999997,10,"right",7,"15soloseacaso.png","7.png",1,"UP","SP","SP",0,1,7
"116",8624087,"lottery","trial",1726.76600000297,11,"right",13,"15soloseacaso.png","13.png",0,"UP","SP","SP",0,0,13
"117",8624087,"lottery","trial",3088.56100000598,12,"right",10,"15soloseacaso.png","10.png",0,"UP","SP","SP",0,0,10
"118",8624087,"lottery","trial",2380.70200000599,13,"left",5,"15soloseacaso.png","5.png",0,"UP","SP","UP",1,0,7.5
"119",8624087,"lottery","trial",1945.39600000595,14,"left",9,"9.png","15soloseacaso.png",0,"SP","UP","SP",0,0,9
"120",8624087,"lottery","trial",4661.32600000594,15,"right",8,"15soloseacaso.png","8.png",0,"UP","SP","SP",0,0,8
"121",8624087,"competition","trial",24683.845999997,1,"right",3,"15solosesoli.png","3.png",1,"UP","SP","SP",0,1,3
"122",8624087,"competition","trial",47779.957999994,2,"right",11,"15solosesoli.png","11.png",1,"UP","SP","SP",0,0,11
"123",8624087,"competition","trial",11640.055000003,3,"left",1,"15solosesoli.png","1.png",0,"UP","SP","UP",1,NA,5.96858638743455
"124",8624087,"competition","trial",52601.380999997,4,"right",6,"6.png","15solosesoli.png",1,"SP","UP","UP",1,0,8.95287958115183
"125",8624087,"competition","trial",3226.80900000001,5,"left",12,"12.png","15solosesoli.png",0,"SP","UP","SP",0,0,12
"126",8624087,"competition","trial",9000.55500000599,6,"left",9,"9.png","15solosesoli.png",0,"SP","UP","SP",0,0,9
"127",8624087,"competition","trial",12439.699999997,7,"left",7,"15solosesoli.png","7.png",1,"UP","SP","UP",1,0,9.26701570680628
"128",8624087,"competition","trial",5319.50400000595,8,"right",8,"15solosesoli.png","8.png",0,"UP","SP","SP",0,1,8
"129",8624087,"competition","trial",41519.949000003,9,"left",5,"15solosesoli.png","5.png",1,"UP","SP","UP",1,0,7.30366492146597
"130",8624087,"competition","trial",44253.081000003,10,"left",2,"15solosesoli.png","2.png",1,"UP","SP","UP",1,0,5.96858638743455
"131",8624087,"competition","trial",10998.919,11,"right",13,"15solosesoli.png","13.png",0,"UP","SP","SP",0,0,13
"132",8624087,"competition","trial",4293.38800000295,12,"left",10,"10.png","15solosesoli.png",0,"SP","UP","SP",0,0,10
"133",8624087,"competition","trial",3732.69999999995,13,"left",4,"15solosesoli.png","4.png",0,"UP","SP","UP",1,1,7.46073298429319
"134",8624087,"competition","trial",3028.87800000003,14,"right",15,"15solosesoli.png","15.png",0,"UP","SP","SP",0,0,15
"135",8624087,"competition","trial",2204.88199999998,15,"right",14,"15solosesoli.png","14.png",0,"UP","SP","SP",0,0,14
"136",8624051,"coordination","trial",13561.853,1,"left",10,"10.png","15soloseinsieme.png",1,"SP","UP","SP",0,0,10
"137",8624051,"coordination","trial",9396.41800000596,2,"right",9,"15soloseinsieme.png","9.png",0,"UP","SP","SP",0,1,9
"138",8624051,"coordination","trial",9896.68200000001,3,"left",15,"15.png","15soloseinsieme.png",0,"SP","UP","SP",0,0,15
"139",8624051,"coordination","trial",7667.964,4,"left",1,"15soloseinsieme.png","1.png",0,"UP","SP","UP",1,NA,14.1361256544503
"140",8624051,"coordination","trial",9953.38,5,"left",12,"12.png","15soloseinsieme.png",0,"SP","UP","SP",0,0,12
"141",8624051,"coordination","trial",9943.928,6,"right",2,"2.png","15soloseinsieme.png",0,"SP","UP","UP",1,0,13.979057591623
"142",8624051,"coordination","trial",7662.53599999999,7,"right",11,"15soloseinsieme.png","11.png",0,"UP","SP","SP",0,0,11
"143",8624051,"coordination","trial",8411.36599999404,8,"left",8,"15soloseinsieme.png","8.png",0,"UP","SP","UP",1,0,10.0523560209424
"144",8624051,"coordination","trial",3068.79300000001,9,"right",3,"3.png","15soloseinsieme.png",0,"SP","UP","UP",1,0,13.979057591623
"145",8624051,"coordination","trial",3253.765,10,"right",6,"6.png","15soloseinsieme.png",0,"SP","UP","UP",1,0,12.2513089005236
"146",8624051,"coordination","trial",9167.52300000298,11,"left",5,"15soloseinsieme.png","5.png",0,"UP","SP","UP",1,0,13.1937172774869
"147",8624051,"coordination","trial",1832.35100000298,12,"right",14,"15soloseinsieme.png","14.png",0,"UP","SP","SP",0,0,14
"148",8624051,"coordination","trial",11366.667000006,13,"left",7,"15soloseinsieme.png","7.png",0,"UP","SP","UP",1,0,10.8376963350785
"149",8624051,"coordination","trial",4245.70600000001,14,"right",4,"4.png","15soloseinsieme.png",0,"SP","UP","UP",1,0,13.979057591623
"150",8624051,"coordination","trial",1702.36599999404,15,"right",13,"15soloseinsieme.png","13.png",0,"UP","SP","SP",0,0,13
"151",8624051,"lottery","trial",8062.897,1,"right",2,"2.png","15soloseacaso.png",0,"SP","UP","UP",1,0,7.5
"152",8624051,"lottery","trial",8206.011,2,"right",8,"15soloseacaso.png","8.png",0,"UP","SP","SP",0,0,8
"153",8624051,"lottery","trial",1710.43299999999,3,"right",14,"15soloseacaso.png","14.png",0,"UP","SP","SP",0,0,14
"154",8624051,"lottery","trial",6699.76199999405,4,"right",6,"6.png","15soloseacaso.png",0,"SP","UP","UP",1,0,7.5
"155",8624051,"lottery","trial",6312.94899999702,5,"left",15,"15.png","15soloseacaso.png",0,"SP","UP","SP",0,0,15
"156",8624051,"lottery","trial",9228.25500000297,6,"right",3,"3.png","15soloseacaso.png",0,"SP","UP","UP",1,0,7.5
"157",8624051,"lottery","trial",4967.77799999702,7,"left",9,"9.png","15soloseacaso.png",0,"SP","UP","SP",0,0,9
"158",8624051,"lottery","trial",2823.47300000297,8,"right",12,"15soloseacaso.png","12.png",0,"UP","SP","SP",0,0,12
"159",8624051,"lottery","trial",2310.73199999405,9,"right",13,"15soloseacaso.png","13.png",0,"UP","SP","SP",0,0,13
"160",8624051,"lottery","trial",18155.6449999941,10,"right",4,"4.png","15soloseacaso.png",1,"SP","UP","UP",1,0,7.5
"161",8624051,"lottery","trial",1811.45800000001,11,"right",11,"15soloseacaso.png","11.png",0,"UP","SP","SP",0,0,11
"162",8624051,"lottery","trial",4924.93599999702,12,"left",5,"15soloseacaso.png","5.png",0,"UP","SP","UP",1,0,7.5
"163",8624051,"lottery","trial",5483.97700000595,13,"right",1,"1.png","15soloseacaso.png",0,"SP","UP","UP",1,NA,7.5
"164",8624051,"lottery","trial",1425.86900000597,14,"right",10,"15soloseacaso.png","10.png",0,"UP","SP","SP",0,0,10
"165",8624051,"lottery","trial",10411.966,15,"right",7,"15soloseacaso.png","7.png",0,"UP","SP","SP",0,1,7
"166",8624051,"competition","trial",15655.058,1,"right",5,"5.png","15solosesoli.png",1,"SP","UP","UP",1,0,7.30366492146597
"167",8624051,"competition","trial",17601.095999994,2,"right",2,"15solosesoli.png","2.png",1,"UP","SP","SP",0,0,2
"168",8624051,"competition","trial",2606.26900000597,3,"left",15,"15.png","15solosesoli.png",0,"SP","UP","SP",0,0,15
"169",8624051,"competition","trial",4255.38799999404,4,"right",13,"15solosesoli.png","13.png",0,"UP","SP","SP",0,0,13
"170",8624051,"competition","trial",1789.967,5,"right",12,"15solosesoli.png","12.png",0,"UP","SP","SP",0,0,12
"171",8624051,"competition","trial",7304.47999999701,6,"right",3,"3.png","15solosesoli.png",0,"SP","UP","UP",1,1,6.20418848167539
"172",8624051,"competition","trial",1745.37599999405,7,"right",8,"15solosesoli.png","8.png",0,"UP","SP","SP",0,0,8
"173",8624051,"competition","trial",18626.611000006,8,"right",6,"6.png","15solosesoli.png",1,"SP","UP","UP",1,0,8.95287958115183
"174",8624051,"competition","trial",1974.92200000299,9,"left",11,"11.png","15solosesoli.png",0,"SP","UP","SP",0,0,11
"175",8624051,"competition","trial",1545.681999997,10,"left",10,"10.png","15solosesoli.png",0,"SP","UP","SP",0,0,10
"176",8624051,"competition","trial",10155.572000006,11,"right",1,"15solosesoli.png","1.png",0,"UP","SP","SP",0,NA,1
"177",8624051,"competition","trial",18051.013000006,12,"right",4,"4.png","15solosesoli.png",1,"SP","UP","UP",1,0,7.46073298429319
"178",8624051,"competition","trial",1002.97099999402,13,"right",14,"15solosesoli.png","14.png",0,"UP","SP","SP",0,0,14
"179",8624051,"competition","trial",1621.87599999999,14,"right",9,"15solosesoli.png","9.png",0,"UP","SP","SP",0,0,9
"180",8624051,"competition","trial",4418.57799999404,15,"left",7,"7.png","15solosesoli.png",0,"SP","UP","SP",0,1,7
"181",8624050,"competition","trial",7033.15599998808,1,"left",1,"15solosesoli.png","1.png",0,"UP","SP","UP",1,NA,5.96858638743455
"182",8624050,"competition","trial",8135.63000002384,2,"right",4,"4.png","15solosesoli.png",0,"SP","UP","UP",1,0,7.46073298429319
"183",8624050,"competition","trial",3552.405,3,"right",14,"15solosesoli.png","14.png",0,"UP","SP","SP",0,0,14
"184",8624050,"competition","trial",4697.23699998808,4,"right",11,"15solosesoli.png","11.png",0,"UP","SP","SP",0,0,11
"185",8624050,"competition","trial",3053.00900001192,5,"left",15,"15.png","15solosesoli.png",0,"SP","UP","SP",0,0,15
"186",8624050,"competition","trial",4829.18400002384,6,"left",5,"15solosesoli.png","5.png",0,"UP","SP","UP",1,0,7.30366492146597
"187",8624050,"competition","trial",4848.36000003577,7,"right",3,"3.png","15solosesoli.png",0,"SP","UP","UP",1,0,6.20418848167539
"188",8624050,"competition","trial",2272.05500001193,8,"left",2,"15solosesoli.png","2.png",0,"UP","SP","UP",1,0,5.96858638743455
"189",8624050,"competition","trial",1851.645,9,"left",12,"12.png","15solosesoli.png",0,"SP","UP","SP",0,0,12
"190",8624050,"competition","trial",1712.16600002385,10,"left",10,"10.png","15solosesoli.png",0,"SP","UP","SP",0,0,10
"191",8624050,"competition","trial",1918.34300002384,11,"left",9,"9.png","15solosesoli.png",0,"SP","UP","SP",0,0,9
"192",8624050,"competition","trial",2556.71900002385,12,"left",8,"8.png","15solosesoli.png",0,"SP","UP","SP",0,0,8
"193",8624050,"competition","trial",2698.10600003577,13,"right",7,"15solosesoli.png","7.png",0,"UP","SP","SP",0,0,7
"194",8624050,"competition","trial",3849.13299999999,14,"right",6,"15solosesoli.png","6.png",0,"UP","SP","SP",0,1,6
"195",8624050,"competition","trial",1491.349,15,"left",13,"13.png","15solosesoli.png",0,"SP","UP","SP",0,0,13
"196",8624050,"lottery","trial",2176.45700002385,1,"right",13,"15soloseacaso.png","13.png",0,"UP","SP","SP",0,0,13
"197",8624050,"lottery","trial",1374.25600001193,2,"left",14,"14.png","15soloseacaso.png",0,"SP","UP","SP",0,0,14
"198",8624050,"lottery","trial",3945.12000002385,3,"left",9,"9.png","15soloseacaso.png",0,"SP","UP","SP",0,0,9
"199",8624050,"lottery","trial",1467.47999998808,4,"left",7,"7.png","15soloseacaso.png",0,"SP","UP","SP",0,0,7
"200",8624050,"lottery","trial",1308.03100002384,5,"right",10,"15soloseacaso.png","10.png",0,"UP","SP","SP",0,0,10
"201",8624050,"lottery","trial",1517.201,6,"left",3,"15soloseacaso.png","3.png",0,"UP","SP","UP",1,0,7.5
"202",8624050,"lottery","trial",1311.85599998808,7,"right",15,"15soloseacaso.png","15.png",0,"UP","SP","SP",0,0,15
"203",8624050,"lottery","trial",1387.20600003576,8,"left",1,"15soloseacaso.png","1.png",0,"UP","SP","UP",1,NA,7.5
"204",8624050,"lottery","trial",970.914999999994,9,"right",11,"15soloseacaso.png","11.png",0,"UP","SP","SP",0,0,11
"205",8624050,"lottery","trial",1738.01600002384,10,"left",2,"15soloseacaso.png","2.png",0,"UP","SP","UP",1,0,7.5
"206",8624050,"lottery","trial",2010.34800002385,11,"left",4,"15soloseacaso.png","4.png",0,"UP","SP","UP",1,0,7.5
"207",8624050,"lottery","trial",15691.7999999881,12,"left",5,"15soloseacaso.png","5.png",1,"UP","SP","UP",1,0,7.5
"208",8624050,"lottery","trial",1081.31500003577,13,"left",12,"12.png","15soloseacaso.png",0,"SP","UP","SP",0,0,12
"209",8624050,"lottery","trial",1032.71300000002,14,"left",8,"8.png","15soloseacaso.png",0,"SP","UP","SP",0,0,8
"210",8624050,"lottery","trial",2878.97800001194,15,"left",6,"6.png","15soloseacaso.png",0,"SP","UP","SP",0,1,6
"211",8624050,"coordination","trial",2889.02799998809,1,"left",13,"13.png","15soloseinsieme.png",0,"SP","UP","SP",0,0,13
"212",8624050,"coordination","trial",1385.40199998807,2,"left",4,"15soloseinsieme.png","4.png",0,"UP","SP","UP",1,0,13.979057591623
"213",8624050,"coordination","trial",2129.77400002384,3,"left",5,"15soloseinsieme.png","5.png",0,"UP","SP","UP",1,0,13.1937172774869
"214",8624050,"coordination","trial",1427.69700002385,4,"right",15,"15soloseinsieme.png","15.png",0,"UP","SP","SP",0,0,15
"215",8624050,"coordination","trial",1371.06700001191,5,"left",7,"15soloseinsieme.png","7.png",0,"UP","SP","UP",1,0,10.8376963350785
"216",8624050,"coordination","trial",1376.38400003576,6,"right",11,"15soloseinsieme.png","11.png",0,"UP","SP","SP",0,0,11
"217",8624050,"coordination","trial",2760.29000001191,7,"left",10,"10.png","15soloseinsieme.png",0,"SP","UP","SP",0,1,10
"218",8624050,"coordination","trial",3483.89199998809,8,"left",9,"15soloseinsieme.png","9.png",0,"UP","SP","UP",1,1,8.87434554973822
"219",8624050,"coordination","trial",1270.13700002385,9,"left",6,"15soloseinsieme.png","6.png",0,"UP","SP","UP",1,0,12.2513089005236
"220",8624050,"coordination","trial",1164.10600003577,10,"right",3,"3.png","15soloseinsieme.png",0,"SP","UP","UP",1,0,13.979057591623
"221",8624050,"coordination","trial",1093.16600002383,11,"left",1,"15soloseinsieme.png","1.png",0,"UP","SP","UP",1,NA,14.1361256544503
"222",8624050,"coordination","trial",1065.03900003576,12,"left",12,"12.png","15soloseinsieme.png",0,"SP","UP","SP",0,0,12
"223",8624050,"coordination","trial",2537.11800001192,13,"left",8,"8.png","15soloseinsieme.png",0,"SP","UP","SP",0,1,8
"224",8624050,"coordination","trial",946.170000011916,14,"left",14,"14.png","15soloseinsieme.png",0,"SP","UP","SP",0,0,14
"225",8624050,"coordination","trial",1160.55200003576,15,"right",2,"2.png","15soloseinsieme.png",0,"SP","UP","UP",1,0,13.979057591623
"226",8624043,"lottery","trial",4947.03199999404,1,"left",4,"15soloseacaso.png","4.png",0,"UP","SP","UP",1,0,7.5
"227",8624043,"lottery","trial",3226.42300001788,2,"left",3,"15soloseacaso.png","3.png",0,"UP","SP","UP",1,0,7.5
"228",8624043,"lottery","trial",5290.35000001788,3,"left",9,"15soloseacaso.png","9.png",0,"UP","SP","UP",1,0,7.5
"229",8624043,"lottery","trial",4260.09099999404,4,"right",8,"8.png","15soloseacaso.png",0,"SP","UP","UP",1,0,7.5
"230",8624043,"lottery","trial",1410.596,5,"right",7,"7.png","15soloseacaso.png",0,"SP","UP","UP",1,0,7.5
"231",8624043,"lottery","trial",1486.48600001192,6,"right",13,"15soloseacaso.png","13.png",0,"UP","SP","SP",0,0,13
"232",8624043,"lottery","trial",4438.12500001788,7,"right",6,"6.png","15soloseacaso.png",0,"SP","UP","UP",1,0,7.5
"233",8624043,"lottery","trial",1520.29699999404,8,"right",14,"15soloseacaso.png","14.png",0,"UP","SP","SP",0,0,14
"234",8624043,"lottery","trial",1503.40000001192,9,"right",10,"15soloseacaso.png","10.png",0,"UP","SP","SP",0,1,10
"235",8624043,"lottery","trial",2400.02499999999,10,"left",11,"11.png","15soloseacaso.png",0,"SP","UP","SP",0,0,11
"236",8624043,"lottery","trial",2453.89200000001,11,"left",5,"15soloseacaso.png","5.png",0,"UP","SP","UP",1,0,7.5
"237",8624043,"lottery","trial",1592.08499999404,12,"left",1,"15soloseacaso.png","1.png",0,"UP","SP","UP",1,NA,7.5
"238",8624043,"lottery","trial",2072.49400000596,13,"right",15,"15soloseacaso.png","15.png",0,"UP","SP","SP",0,0,15
"239",8624043,"lottery","trial",1812.04400000596,14,"right",2,"2.png","15soloseacaso.png",0,"SP","UP","UP",1,0,7.5
"240",8624043,"lottery","trial",1516.05500000596,15,"left",12,"12.png","15soloseacaso.png",0,"SP","UP","SP",0,0,12
"241",8624043,"coordination","trial",2812.83599999404,1,"right",4,"4.png","15soloseinsieme.png",0,"SP","UP","UP",1,0,13.979057591623
"242",8624043,"coordination","trial",2469.78500001192,2,"right",13,"13.png","15soloseinsieme.png",0,"SP","UP","UP",1,0,5.34031413612565
"243",8624043,"coordination","trial",949.910999999993,3,"right",9,"9.png","15soloseinsieme.png",0,"SP","UP","UP",1,0,8.87434554973822
"244",8624043,"coordination","trial",1456.62900000597,4,"left",1,"15soloseinsieme.png","1.png",0,"UP","SP","UP",1,NA,14.1361256544503
"245",8624043,"coordination","trial",1988.04600001192,5,"right",10,"10.png","15soloseinsieme.png",0,"SP","UP","UP",1,0,6.91099476439791
"246",8624043,"coordination","trial",927.024999999994,6,"right",8,"8.png","15soloseinsieme.png",0,"SP","UP","UP",1,0,10.0523560209424
"247",8624043,"coordination","trial",919.130000011923,7,"right",14,"14.png","15soloseinsieme.png",0,"SP","UP","UP",1,0,4.3979057591623
"248",8624043,"coordination","trial",1321.61700000596,8,"left",12,"15soloseinsieme.png","12.png",0,"UP","SP","UP",1,0,5.49738219895288
"249",8624043,"coordination","trial",2239.41600001192,9,"right",6,"6.png","15soloseinsieme.png",0,"SP","UP","UP",1,0,12.2513089005236
"250",8624043,"coordination","trial",1120.52800001788,10,"right",7,"7.png","15soloseinsieme.png",0,"SP","UP","UP",1,0,10.8376963350785
"251",8624043,"coordination","trial",721.481000011918,11,"right",5,"5.png","15soloseinsieme.png",0,"SP","UP","UP",1,0,13.1937172774869
"252",8624043,"coordination","trial",1391.23300001788,12,"left",11,"15soloseinsieme.png","11.png",0,"UP","SP","UP",1,0,6.83246073298429
"253",8624043,"coordination","trial",17134.168000006,13,"left",15,"15.png","15soloseinsieme.png",1,"SP","UP","SP",0,1,15
"254",8624043,"coordination","trial",1474.36600000595,14,"left",3,"15soloseinsieme.png","3.png",0,"UP","SP","UP",1,0,13.979057591623
"255",8624043,"coordination","trial",826.578000017878,15,"left",2,"15soloseinsieme.png","2.png",0,"UP","SP","UP",1,0,13.979057591623
"256",8624043,"competition","trial",32262.3460000119,1,"right",14,"15solosesoli.png","14.png",1,"UP","SP","SP",0,0,14
"257",8624043,"competition","trial",2451.75600001193,2,"left",15,"15.png","15solosesoli.png",0,"SP","UP","SP",0,0,15
"258",8624043,"competition","trial",39559.8830000119,3,"right",9,"9.png","15solosesoli.png",1,"SP","UP","UP",1,1,10.7591623036649
"259",8624043,"competition","trial",17484.564,4,"left",1,"15solosesoli.png","1.png",1,"UP","SP","UP",1,NA,5.96858638743455
"260",8624043,"competition","trial",2064.81200000001,5,"left",13,"13.png","15solosesoli.png",0,"SP","UP","SP",0,0,13
"261",8624043,"competition","trial",25886.315000006,6,"right",5,"5.png","15solosesoli.png",1,"SP","UP","UP",1,0,7.30366492146597
"262",8624043,"competition","trial",1830.5850000119,7,"left",7,"7.png","15solosesoli.png",0,"SP","UP","SP",0,1,7
"263",8624043,"competition","trial",9082.99099999998,8,"right",6,"6.png","15solosesoli.png",0,"SP","UP","UP",1,0,8.95287958115183
"264",8624043,"competition","trial",2074.30099999998,9,"right",3,"15solosesoli.png","3.png",0,"UP","SP","SP",0,0,3
"265",8624043,"competition","trial",5411.66899999999,10,"right",8,"15solosesoli.png","8.png",0,"UP","SP","SP",0,0,8
"266",8624043,"competition","trial",11224.7560000119,11,"right",2,"15solosesoli.png","2.png",0,"UP","SP","SP",0,1,2
"267",8624043,"competition","trial",1457.92200000596,12,"right",12,"15solosesoli.png","12.png",0,"UP","SP","SP",0,0,12
"268",8624043,"competition","trial",12431.2860000179,13,"left",4,"15solosesoli.png","4.png",0,"UP","SP","UP",1,1,7.46073298429319
"269",8624043,"competition","trial",1253.82899999403,14,"left",11,"11.png","15solosesoli.png",0,"SP","UP","SP",0,0,11
"270",8624043,"competition","trial",944.959000017901,15,"left",10,"10.png","15solosesoli.png",0,"SP","UP","SP",0,1,10
"271",8624074,"coordination","trial",3797,1,"right",6,"15soloseinsieme.png","6.png",0,"UP","SP","SP",0,0,6
"272",8624074,"coordination","trial",7544,2,"right",8,"15soloseinsieme.png","8.png",0,"UP","SP","SP",0,0,8
"273",8624074,"coordination","trial",1182,3,"right",10,"15soloseinsieme.png","10.png",0,"UP","SP","SP",0,0,10
"274",8624074,"coordination","trial",4461,4,"right",2,"15soloseinsieme.png","2.png",0,"UP","SP","SP",0,0,2
"275",8624074,"coordination","trial",2823,5,"left",13,"13.png","15soloseinsieme.png",0,"SP","UP","SP",0,0,13
"276",8624074,"coordination","trial",1413,6,"left",4,"4.png","15soloseinsieme.png",0,"SP","UP","SP",0,0,4
"277",8624074,"coordination","trial",1179,7,"left",1,"1.png","15soloseinsieme.png",0,"SP","UP","SP",0,NA,1
"278",8624074,"coordination","trial",1264,8,"left",11,"11.png","15soloseinsieme.png",0,"SP","UP","SP",0,0,11
"279",8624074,"coordination","trial",933,9,"left",5,"5.png","15soloseinsieme.png",0,"SP","UP","SP",0,0,5
"280",8624074,"coordination","trial",1538,10,"right",15,"15soloseinsieme.png","15.png",0,"UP","SP","SP",0,0,15
"281",8624074,"coordination","trial",1653,11,"right",3,"15soloseinsieme.png","3.png",0,"UP","SP","SP",0,0,3
"282",8624074,"coordination","trial",1019,12,"left",7,"7.png","15soloseinsieme.png",0,"SP","UP","SP",0,0,7
"283",8624074,"coordination","trial",1624,13,"left",14,"14.png","15soloseinsieme.png",0,"SP","UP","SP",0,0,14
"284",8624074,"coordination","trial",2531,14,"right",9,"15soloseinsieme.png","9.png",0,"UP","SP","SP",0,0,9
"285",8624074,"coordination","trial",1208,15,"left",12,"12.png","15soloseinsieme.png",0,"SP","UP","SP",0,0,12
"286",8624074,"competition","trial",10239,1,"right",1,"1.png","15solosesoli.png",0,"SP","UP","UP",1,NA,5.96858638743455
"287",8624074,"competition","trial",3696,2,"right",15,"15.png","15solosesoli.png",0,"SP","UP","UP",1,1,12.4083769633508
"288",8624074,"competition","trial",3584,3,"left",5,"5.png","15solosesoli.png",0,"SP","UP","SP",0,1,5
"289",8624074,"competition","trial",1738,4,"right",10,"15solosesoli.png","10.png",0,"UP","SP","SP",0,0,10
"290",8624074,"competition","trial",1185,5,"right",13,"15solosesoli.png","13.png",0,"UP","SP","SP",0,0,13
"291",8624074,"competition","trial",1438,6,"left",14,"14.png","15solosesoli.png",0,"SP","UP","SP",0,0,14
"292",8624074,"competition","trial",1634,7,"left",7,"7.png","15solosesoli.png",0,"SP","UP","SP",0,0,7
"293",8624074,"competition","trial",884,8,"left",9,"9.png","15solosesoli.png",0,"SP","UP","SP",0,0,9
"294",8624074,"competition","trial",1252,9,"left",3,"15solosesoli.png","3.png",0,"UP","SP","UP",1,1,6.20418848167539
"295",8624074,"competition","trial",1987,10,"left",2,"2.png","15solosesoli.png",0,"SP","UP","SP",0,1,2
"296",8624074,"competition","trial",1142,11,"right",12,"15solosesoli.png","12.png",0,"UP","SP","SP",0,0,12
"297",8624074,"competition","trial",1001,12,"left",11,"11.png","15solosesoli.png",0,"SP","UP","SP",0,0,11
"298",8624074,"competition","trial",1616,13,"right",6,"15solosesoli.png","6.png",0,"UP","SP","SP",0,0,6
"299",8624074,"competition","trial",1483,14,"right",4,"4.png","15solosesoli.png",0,"SP","UP","UP",1,0,7.46073298429319
"300",8624074,"competition","trial",764,15,"right",8,"15solosesoli.png","8.png",0,"UP","SP","SP",0,0,8
"301",8624074,"lottery","trial",4481,1,"right",4,"4.png","15soloseacaso.png",0,"SP","UP","UP",1,1,7.5
"302",8624074,"lottery","trial",3067,2,"left",11,"11.png","15soloseacaso.png",0,"SP","UP","SP",0,0,11
"303",8624074,"lottery","trial",889,3,"right",8,"15soloseacaso.png","8.png",0,"UP","SP","SP",0,0,8
"304",8624074,"lottery","trial",864,4,"left",15,"15.png","15soloseacaso.png",0,"SP","UP","SP",0,0,15
"305",8624074,"lottery","trial",1016,5,"left",9,"9.png","15soloseacaso.png",0,"SP","UP","SP",0,0,9
"306",8624074,"lottery","trial",1099,6,"left",1,"1.png","15soloseacaso.png",0,"SP","UP","SP",0,NA,1
"307",8624074,"lottery","trial",697,7,"left",2,"2.png","15soloseacaso.png",0,"SP","UP","SP",0,0,2
"308",8624074,"lottery","trial",2172,8,"left",13,"15soloseacaso.png","13.png",0,"UP","SP","UP",1,1,7.5
"309",8624074,"lottery","trial",901,9,"right",5,"15soloseacaso.png","5.png",0,"UP","SP","SP",0,1,5
"310",8624074,"lottery","trial",1148,10,"right",7,"15soloseacaso.png","7.png",0,"UP","SP","SP",0,0,7
"311",8624074,"lottery","trial",735,11,"right",6,"15soloseacaso.png","6.png",0,"UP","SP","SP",0,0,6
"312",8624074,"lottery","trial",872,12,"left",10,"10.png","15soloseacaso.png",0,"SP","UP","SP",0,0,10
"313",8624074,"lottery","trial",825,13,"left",14,"14.png","15soloseacaso.png",0,"SP","UP","SP",0,1,14
"314",8624074,"lottery","trial",697,14,"left",12,"12.png","15soloseacaso.png",0,"SP","UP","SP",0,0,12
"315",8624074,"lottery","trial",1804.00000000003,15,"right",3,"15soloseacaso.png","3.png",0,"UP","SP","SP",0,0,3
"316",8624045,"coordination","trial",6533.07200000001,1,"left",9,"15soloseinsieme.png","9.png",0,"UP","SP","UP",1,0,8.87434554973822
"317",8624045,"coordination","trial",5925.17499997616,2,"left",11,"11.png","15soloseinsieme.png",0,"SP","UP","SP",0,0,11
"318",8624045,"coordination","trial",4547.135,3,"right",13,"15soloseinsieme.png","13.png",0,"UP","SP","SP",0,0,13
"319",8624045,"coordination","trial",6094.41700002384,4,"left",8,"15soloseinsieme.png","8.png",0,"UP","SP","UP",1,1,10.0523560209424
"320",8624045,"coordination","trial",3161.50599998808,5,"right",5,"5.png","15soloseinsieme.png",0,"SP","UP","UP",1,0,13.1937172774869
"321",8624045,"coordination","trial",2517.05999998808,6,"right",14,"15soloseinsieme.png","14.png",0,"UP","SP","SP",0,0,14
"322",8624045,"coordination","trial",2966.548,7,"right",1,"1.png","15soloseinsieme.png",0,"SP","UP","UP",1,NA,14.1361256544503
"323",8624045,"coordination","trial",1835.34600000001,8,"left",3,"15soloseinsieme.png","3.png",0,"UP","SP","UP",1,0,13.979057591623
"324",8624045,"coordination","trial",1413.41999998808,9,"right",2,"2.png","15soloseinsieme.png",0,"SP","UP","UP",1,0,13.979057591623
"325",8624045,"coordination","trial",6155.77400002384,10,"left",7,"7.png","15soloseinsieme.png",0,"SP","UP","SP",0,1,7
"326",8624045,"coordination","trial",1755.257,11,"left",6,"15soloseinsieme.png","6.png",0,"UP","SP","UP",1,0,12.2513089005236
"327",8624045,"coordination","trial",4466.48800000001,12,"left",15,"15soloseinsieme.png","15.png",0,"UP","SP","UP",1,1,3.61256544502618
"328",8624045,"coordination","trial",2074.545,13,"left",4,"15soloseinsieme.png","4.png",0,"UP","SP","UP",1,0,13.979057591623
"329",8624045,"coordination","trial",1299.948,14,"left",10,"10.png","15soloseinsieme.png",0,"SP","UP","SP",0,1,10
"330",8624045,"coordination","trial",1494.04600002384,15,"right",12,"15soloseinsieme.png","12.png",0,"UP","SP","SP",0,0,12
"331",8624045,"lottery","trial",6427.82700002386,1,"right",7,"15soloseacaso.png","7.png",0,"UP","SP","SP",0,1,7
"332",8624045,"lottery","trial",1622.93700002384,2,"right",1,"1.png","15soloseacaso.png",0,"SP","UP","UP",1,NA,7.5
"333",8624045,"lottery","trial",6198.20099998807,3,"left",8,"8.png","15soloseacaso.png",0,"SP","UP","SP",0,0,8
"334",8624045,"lottery","trial",1545.23500001192,4,"right",15,"15.png","15soloseacaso.png",0,"SP","UP","UP",1,1,7.5
"335",8624045,"lottery","trial",1568.28300002383,5,"left",4,"15soloseacaso.png","4.png",0,"UP","SP","UP",1,0,7.5
"336",8624045,"lottery","trial",1097.587,6,"right",3,"3.png","15soloseacaso.png",0,"SP","UP","UP",1,0,7.5
"337",8624045,"lottery","trial",1547.21699997617,7,"right",12,"15soloseacaso.png","12.png",0,"UP","SP","SP",0,0,12
"338",8624045,"lottery","trial",2176.26499998808,8,"left",9,"9.png","15soloseacaso.png",0,"SP","UP","SP",0,0,9
"339",8624045,"lottery","trial",1089.70499998808,9,"right",5,"5.png","15soloseacaso.png",0,"SP","UP","UP",1,0,7.5
"340",8624045,"lottery","trial",1841.93499998807,10,"left",6,"15soloseacaso.png","6.png",0,"UP","SP","UP",1,0,7.5
"341",8624045,"lottery","trial",1198.60299997617,11,"left",13,"13.png","15soloseacaso.png",0,"SP","UP","SP",0,0,13
"342",8624045,"lottery","trial",1475.13699998808,12,"left",10,"10.png","15soloseacaso.png",0,"SP","UP","SP",0,0,10
"343",8624045,"lottery","trial",1070.04899998807,13,"right",14,"15soloseacaso.png","14.png",0,"UP","SP","SP",0,0,14
"344",8624045,"lottery","trial",2771.34500002384,14,"left",11,"11.png","15soloseacaso.png",0,"SP","UP","SP",0,0,11
"345",8624045,"lottery","trial",961.709000000003,15,"right",2,"2.png","15soloseacaso.png",0,"SP","UP","UP",1,0,7.5
"346",8624045,"competition","trial",11126.038,1,"left",12,"12.png","15solosesoli.png",0,"SP","UP","SP",0,0,12
"347",8624045,"competition","trial",3484.95999999999,2,"left",14,"14.png","15solosesoli.png",0,"SP","UP","SP",0,1,14
"348",8624045,"competition","trial",2499.89999999999,3,"right",6,"15solosesoli.png","6.png",0,"UP","SP","SP",0,0,6
"349",8624045,"competition","trial",7089.67200002383,4,"left",7,"7.png","15solosesoli.png",0,"SP","UP","SP",0,0,7
"350",8624045,"competition","trial",6126.01600002384,5,"right",5,"15solosesoli.png","5.png",0,"UP","SP","SP",0,0,5
"351",8624045,"competition","trial",4042.61400002384,6,"right",4,"15solosesoli.png","4.png",0,"UP","SP","SP",0,1,4
"352",8624045,"competition","trial",10131.7289999762,7,"left",13,"15solosesoli.png","13.png",0,"UP","SP","UP",1,1,11.8586387434555
"353",8624045,"competition","trial",5085.61399997617,8,"right",15,"15solosesoli.png","15.png",0,"UP","SP","SP",0,0,15
"354",8624045,"competition","trial",3221.70400002383,9,"right",9,"15solosesoli.png","9.png",0,"UP","SP","SP",0,0,9
"355",8624045,"competition","trial",2565.98599997617,10,"left",3,"15solosesoli.png","3.png",0,"UP","SP","UP",1,1,6.20418848167539
"356",8624045,"competition","trial",3223.69500001194,11,"left",8,"8.png","15solosesoli.png",0,"SP","UP","SP",0,0,8
"357",8624045,"competition","trial",4933.13599999994,12,"right",2,"15solosesoli.png","2.png",0,"UP","SP","SP",0,1,2
"358",8624045,"competition","trial",5356.64200002386,13,"right",10,"15solosesoli.png","10.png",0,"UP","SP","SP",0,0,10
"359",8624045,"competition","trial",2929.97599998809,14,"left",11,"11.png","15solosesoli.png",0,"SP","UP","SP",0,0,11
"360",8624045,"competition","trial",1716.24599999998,15,"right",1,"1.png","15solosesoli.png",0,"SP","UP","UP",1,NA,5.96858638743455
"361",8624170,"competition","trial",13971.8219999762,1,"left",4,"15solosesoli.png","4.png",1,"UP","SP","UP",1,1,7.46073298429319
"362",8624170,"competition","trial",4929.74899996423,2,"right",6,"6.png","15solosesoli.png",0,"SP","UP","UP",1,0,8.95287958115183
"363",8624170,"competition","trial",17087.1649999762,3,"right",5,"5.png","15solosesoli.png",1,"SP","UP","UP",1,0,7.30366492146597
"364",8624170,"competition","trial",4225.85899998808,4,"right",14,"14.png","15solosesoli.png",0,"SP","UP","UP",1,0,12.4869109947644
"365",8624170,"competition","trial",5255.09700001192,5,"right",10,"10.png","15solosesoli.png",0,"SP","UP","UP",1,0,11.3089005235602
"366",8624170,"competition","trial",7512.87899996423,6,"left",8,"8.png","15solosesoli.png",0,"SP","UP","SP",0,0,8
"367",8624170,"competition","trial",8741.14600001193,7,"left",15,"15solosesoli.png","15.png",0,"UP","SP","UP",1,0,12.4083769633508
"368",8624170,"competition","trial",2649.622,8,"left",2,"2.png","15solosesoli.png",0,"SP","UP","SP",0,0,2
"369",8624170,"competition","trial",1677.50800001192,9,"right",1,"15solosesoli.png","1.png",0,"UP","SP","SP",0,NA,1
"370",8624170,"competition","trial",1502.70900001192,10,"left",7,"7.png","15solosesoli.png",0,"SP","UP","SP",0,1,7
"371",8624170,"competition","trial",2327.25399997616,11,"left",12,"15solosesoli.png","12.png",0,"UP","SP","UP",1,0,11.4659685863874
"372",8624170,"competition","trial",2014.35300001192,12,"right",11,"11.png","15solosesoli.png",0,"SP","UP","UP",1,0,11.2303664921466
"373",8624170,"competition","trial",1527.40499997616,13,"right",13,"13.png","15solosesoli.png",0,"SP","UP","UP",1,0,11.8586387434555
"374",8624170,"competition","trial",2715.261,14,"left",3,"3.png","15solosesoli.png",0,"SP","UP","SP",0,0,3
"375",8624170,"competition","trial",1664.25799996423,15,"right",9,"9.png","15solosesoli.png",0,"SP","UP","UP",1,1,10.7591623036649
"376",8624170,"lottery","trial",1999.36,1,"left",8,"15soloseacaso.png","8.png",0,"UP","SP","UP",1,0,7.5
"377",8624170,"lottery","trial",1294.13299996423,2,"left",4,"15soloseacaso.png","4.png",0,"UP","SP","UP",1,0,7.5
"378",8624170,"lottery","trial",1252.86299997616,3,"right",11,"11.png","15soloseacaso.png",0,"SP","UP","UP",1,0,7.5
"379",8624170,"lottery","trial",1095.95299999999,4,"left",2,"15soloseacaso.png","2.png",0,"UP","SP","UP",1,0,7.5
"380",8624170,"lottery","trial",982.492999988084,5,"left",3,"15soloseacaso.png","3.png",0,"UP","SP","UP",1,0,7.5
"381",8624170,"lottery","trial",1164.09399998808,6,"left",6,"15soloseacaso.png","6.png",0,"UP","SP","UP",1,0,7.5
"382",8624170,"lottery","trial",1071.14800001192,7,"right",9,"9.png","15soloseacaso.png",0,"SP","UP","UP",1,0,7.5
"383",8624170,"lottery","trial",5571.55099997617,8,"right",15,"15.png","15soloseacaso.png",0,"SP","UP","UP",1,0,7.5
"384",8624170,"lottery","trial",1841.93099997615,9,"right",10,"10.png","15soloseacaso.png",0,"SP","UP","UP",1,0,7.5
"385",8624170,"lottery","trial",1807.30799999999,10,"left",13,"15soloseacaso.png","13.png",0,"UP","SP","UP",1,0,7.5
"386",8624170,"lottery","trial",2368.576,11,"right",1,"1.png","15soloseacaso.png",0,"SP","UP","UP",1,NA,7.5
"387",8624170,"lottery","trial",1151.427,12,"left",7,"15soloseacaso.png","7.png",0,"UP","SP","UP",1,0,7.5
"388",8624170,"lottery","trial",1115.13499998808,13,"right",14,"14.png","15soloseacaso.png",0,"SP","UP","UP",1,0,7.5
"389",8624170,"lottery","trial",1249.351,14,"right",12,"12.png","15soloseacaso.png",0,"SP","UP","UP",1,0,7.5
"390",8624170,"lottery","trial",732.650000000023,15,"right",5,"5.png","15soloseacaso.png",0,"SP","UP","UP",1,0,7.5
"391",8624170,"coordination","trial",14120.8449999881,1,"right",1,"15soloseinsieme.png","1.png",1,"UP","SP","SP",0,NA,1
"392",8624170,"coordination","trial",1364.06299998809,2,"left",4,"4.png","15soloseinsieme.png",0,"SP","UP","SP",0,0,4
"393",8624170,"coordination","trial",879.780999964249,3,"right",2,"15soloseinsieme.png","2.png",0,"UP","SP","SP",0,0,2
"394",8624170,"coordination","trial",898.464000011911,4,"right",5,"15soloseinsieme.png","5.png",0,"UP","SP","SP",0,0,5
"395",8624170,"coordination","trial",1107.51799998808,5,"right",12,"15soloseinsieme.png","12.png",0,"UP","SP","SP",0,0,12
"396",8624170,"coordination","trial",5285.76099996423,6,"left",8,"8.png","15soloseinsieme.png",0,"SP","UP","SP",0,0,8
"397",8624170,"coordination","trial",1365.18299997615,7,"right",15,"15soloseinsieme.png","15.png",0,"UP","SP","SP",0,0,15
"398",8624170,"coordination","trial",1204.01700001193,8,"right",13,"15soloseinsieme.png","13.png",0,"UP","SP","SP",0,0,13
"399",8624170,"coordination","trial",1178.90599999999,9,"left",9,"9.png","15soloseinsieme.png",0,"SP","UP","SP",0,0,9
"400",8624170,"coordination","trial",1064.98300001191,10,"left",11,"11.png","15soloseinsieme.png",0,"SP","UP","SP",0,0,11
"401",8624170,"coordination","trial",997.816999988077,11,"left",6,"6.png","15soloseinsieme.png",0,"SP","UP","SP",0,0,6
"402",8624170,"coordination","trial",819.739000011934,12,"left",3,"3.png","15soloseinsieme.png",0,"SP","UP","SP",0,0,3
"403",8624170,"coordination","trial",1114.83900000001,13,"right",7,"15soloseinsieme.png","7.png",0,"UP","SP","SP",0,0,7
"404",8624170,"coordination","trial",1052.14799997615,14,"left",14,"14.png","15soloseinsieme.png",0,"SP","UP","SP",0,0,14
"405",8624170,"coordination","trial",1025.429,15,"left",10,"10.png","15soloseinsieme.png",0,"SP","UP","SP",0,0,10
"406",8624077,"competition","trial",22945.4009999285,1,"left",10,"10.png","15solosesoli.png",1,"SP","UP","SP",0,0,10
"407",8624077,"competition","trial",33005.0960000238,2,"right",3,"3.png","15solosesoli.png",1,"SP","UP","UP",1,1,6.20418848167539
"408",8624077,"competition","trial",3760.65099997616,3,"right",11,"15solosesoli.png","11.png",0,"UP","SP","SP",0,0,11
"409",8624077,"competition","trial",4732.79300000001,4,"right",2,"15solosesoli.png","2.png",0,"UP","SP","SP",0,1,2
"410",8624077,"competition","trial",8945.79300000001,5,"left",1,"15solosesoli.png","1.png",0,"UP","SP","UP",1,NA,5.96858638743455
"411",8624077,"competition","trial",6220.88799997616,6,"right",14,"14.png","15solosesoli.png",0,"SP","UP","UP",1,1,12.4869109947644
"412",8624077,"competition","trial",5098.52599997616,7,"right",12,"15solosesoli.png","12.png",0,"UP","SP","SP",0,0,12
"413",8624077,"competition","trial",2352.981,8,"right",13,"15solosesoli.png","13.png",0,"UP","SP","SP",0,0,13
"414",8624077,"competition","trial",1701.077,9,"right",8,"15solosesoli.png","8.png",0,"UP","SP","SP",0,0,8
"415",8624077,"competition","trial",4291.916,10,"right",15,"15solosesoli.png","15.png",0,"UP","SP","SP",0,1,15
"416",8624077,"competition","trial",2224.93700000001,11,"right",7,"15solosesoli.png","7.png",0,"UP","SP","SP",0,0,7
"417",8624077,"competition","trial",4394.67,12,"left",9,"9.png","15solosesoli.png",0,"SP","UP","SP",0,0,9
"418",8624077,"competition","trial",1565.45100002384,13,"left",5,"5.png","15solosesoli.png",0,"SP","UP","SP",0,0,5
"419",8624077,"competition","trial",1835.85100002385,14,"right",4,"15solosesoli.png","4.png",0,"UP","SP","SP",0,1,4
"420",8624077,"competition","trial",1376.44899997616,15,"left",6,"6.png","15solosesoli.png",0,"SP","UP","SP",0,0,6
"421",8624077,"coordination","trial",3795.08499999999,1,"right",3,"15soloseinsieme.png","3.png",0,"UP","SP","SP",0,0,3
"422",8624077,"coordination","trial",4556.2929999523,2,"right",7,"15soloseinsieme.png","7.png",0,"UP","SP","SP",0,0,7
"423",8624077,"coordination","trial",2734.66700002385,3,"right",9,"15soloseinsieme.png","9.png",0,"UP","SP","SP",0,0,9
"424",8624077,"coordination","trial",2153.28099999999,4,"right",5,"5.png","15soloseinsieme.png",0,"SP","UP","UP",1,1,13.1937172774869
"425",8624077,"coordination","trial",2392.92300000001,5,"left",8,"8.png","15soloseinsieme.png",0,"SP","UP","SP",0,0,8
"426",8624077,"coordination","trial",1612.09499997617,6,"right",10,"15soloseinsieme.png","10.png",0,"UP","SP","SP",0,0,10
"427",8624077,"coordination","trial",1002.00400002385,7,"right",13,"15soloseinsieme.png","13.png",0,"UP","SP","SP",0,0,13
"428",8624077,"coordination","trial",1910.94099995232,8,"left",15,"15.png","15soloseinsieme.png",0,"SP","UP","SP",0,1,15
"429",8624077,"coordination","trial",1435.90099992848,9,"left",11,"11.png","15soloseinsieme.png",0,"SP","UP","SP",0,0,11
"430",8624077,"coordination","trial",1249.25,10,"left",4,"4.png","15soloseinsieme.png",0,"SP","UP","SP",0,0,4
"431",8624077,"coordination","trial",1024.52899997614,11,"left",2,"2.png","15soloseinsieme.png",0,"SP","UP","SP",0,0,2
"432",8624077,"coordination","trial",1313.171,12,"right",6,"15soloseinsieme.png","6.png",0,"UP","SP","SP",0,1,6
"433",8624077,"coordination","trial",1601.87600002385,13,"right",1,"15soloseinsieme.png","1.png",0,"UP","SP","SP",0,NA,1
"434",8624077,"coordination","trial",1470.67100002384,14,"right",12,"15soloseinsieme.png","12.png",0,"UP","SP","SP",0,0,12
"435",8624077,"coordination","trial",4747.74400000001,15,"right",14,"14.png","15soloseinsieme.png",0,"SP","UP","UP",1,1,4.3979057591623
"436",8624077,"lottery","trial",4308.78500002384,1,"left",2,"2.png","15soloseacaso.png",0,"SP","UP","SP",0,1,2
"437",8624077,"lottery","trial",29328.931,2,"right",10,"15soloseacaso.png","10.png",1,"UP","SP","SP",0,0,10
"438",8624077,"lottery","trial",6540.09600002386,3,"left",3,"15soloseacaso.png","3.png",0,"UP","SP","UP",1,1,7.5
"439",8624077,"lottery","trial",5591.90999992847,4,"right",8,"15soloseacaso.png","8.png",0,"UP","SP","SP",0,0,8
"440",8624077,"lottery","trial",2472.14499992848,5,"left",4,"15soloseacaso.png","4.png",0,"UP","SP","UP",1,0,7.5
"441",8624077,"lottery","trial",3149.15000000002,6,"left",1,"15soloseacaso.png","1.png",0,"UP","SP","UP",1,NA,7.5
"442",8624077,"lottery","trial",3141.53700002385,7,"left",14,"14.png","15soloseacaso.png",0,"SP","UP","SP",0,0,14
"443",8624077,"lottery","trial",2814.43599992848,8,"left",9,"9.png","15soloseacaso.png",0,"SP","UP","SP",0,0,9
"444",8624077,"lottery","trial",2063.73699997616,9,"left",12,"12.png","15soloseacaso.png",0,"SP","UP","SP",0,0,12
"445",8624077,"lottery","trial",3252.12899995231,10,"right",15,"15soloseacaso.png","15.png",0,"UP","SP","SP",0,0,15
"446",8624077,"lottery","trial",9838.00799992849,11,"left",11,"11.png","15soloseacaso.png",0,"SP","UP","SP",0,0,11
"447",8624077,"lottery","trial",2778.57199999999,12,"right",7,"15soloseacaso.png","7.png",0,"UP","SP","SP",0,0,7
"448",8624077,"lottery","trial",1920.41699995234,13,"right",13,"15soloseacaso.png","13.png",0,"UP","SP","SP",0,0,13
"449",8624077,"lottery","trial",3166.08000000002,14,"right",5,"5.png","15soloseacaso.png",0,"SP","UP","UP",1,0,7.5
"450",8624077,"lottery","trial",4474.44499997614,15,"right",6,"15soloseacaso.png","6.png",0,"UP","SP","SP",0,1,6
"451",8624040,"competition","trial",18804,1,"right",9,"15solosesoli.png","9.png",1,"UP","SP","SP",0,0,9
"452",8624040,"competition","trial",14970,2,"right",8,"15solosesoli.png","8.png",1,"UP","SP","SP",0,0,8
"453",8624040,"competition","trial",23121,3,"right",10,"15solosesoli.png","10.png",1,"UP","SP","SP",0,0,10
"454",8624040,"competition","trial",11620,4,"right",2,"15solosesoli.png","2.png",0,"UP","SP","SP",0,0,2
"455",8624040,"competition","trial",2157,5,"left",14,"14.png","15solosesoli.png",0,"SP","UP","SP",0,0,14
"456",8624040,"competition","trial",1853,6,"right",13,"15solosesoli.png","13.png",0,"UP","SP","SP",0,0,13
"457",8624040,"competition","trial",2053,7,"right",12,"15solosesoli.png","12.png",0,"UP","SP","SP",0,0,12
"458",8624040,"competition","trial",1903,8,"left",7,"7.png","15solosesoli.png",0,"SP","UP","SP",0,0,7
"459",8624040,"competition","trial",1503,9,"left",6,"6.png","15solosesoli.png",0,"SP","UP","SP",0,0,6
"460",8624040,"competition","trial",1453,10,"right",3,"15solosesoli.png","3.png",0,"UP","SP","SP",0,0,3
"461",8624040,"competition","trial",1870,11,"right",5,"15solosesoli.png","5.png",0,"UP","SP","SP",0,0,5
"462",8624040,"competition","trial",1203,12,"left",4,"4.png","15solosesoli.png",0,"SP","UP","SP",0,0,4
"463",8624040,"competition","trial",2141,13,"right",1,"15solosesoli.png","1.png",0,"UP","SP","SP",0,NA,1
"464",8624040,"competition","trial",1237,14,"left",11,"11.png","15solosesoli.png",0,"SP","UP","SP",0,0,11
"465",8624040,"competition","trial",3170,15,"left",15,"15.png","15solosesoli.png",0,"SP","UP","SP",0,0,15
"466",8624040,"lottery","trial",6638.00000000003,1,"right",7,"15soloseacaso.png","7.png",0,"UP","SP","SP",0,0,7
"467",8624040,"lottery","trial",5370,2,"left",6,"6.png","15soloseacaso.png",0,"SP","UP","SP",0,1,6
"468",8624040,"lottery","trial",1587,3,"left",13,"13.png","15soloseacaso.png",0,"SP","UP","SP",0,0,13
"469",8624040,"lottery","trial",1738,4,"right",3,"3.png","15soloseacaso.png",0,"SP","UP","UP",1,0,7.5
"470",8624040,"lottery","trial",9269,5,"right",4,"4.png","15soloseacaso.png",0,"SP","UP","UP",1,0,7.5
"471",8624040,"lottery","trial",1204,6,"right",11,"15soloseacaso.png","11.png",0,"UP","SP","SP",0,0,11
"472",8624040,"lottery","trial",1221,7,"right",8,"15soloseacaso.png","8.png",0,"UP","SP","SP",0,0,8
"473",8624040,"lottery","trial",1222,8,"right",14,"15soloseacaso.png","14.png",0,"UP","SP","SP",0,0,14
"474",8624040,"lottery","trial",2154,9,"right",5,"5.png","15soloseacaso.png",0,"SP","UP","UP",1,0,7.5
"475",8624040,"lottery","trial",1053,10,"right",10,"15soloseacaso.png","10.png",0,"UP","SP","SP",0,0,10
"476",8624040,"lottery","trial",1236,11,"left",12,"12.png","15soloseacaso.png",0,"SP","UP","SP",0,0,12
"477",8624040,"lottery","trial",5351,12,"right",15,"15soloseacaso.png","15.png",0,"UP","SP","SP",0,0,15
"478",8624040,"lottery","trial",2352,13,"right",1,"1.png","15soloseacaso.png",0,"SP","UP","UP",1,NA,7.5
"479",8624040,"lottery","trial",921,14,"right",9,"15soloseacaso.png","9.png",0,"UP","SP","SP",0,0,9
"480",8624040,"lottery","trial",3170,15,"right",2,"2.png","15soloseacaso.png",0,"SP","UP","UP",1,0,7.5
"481",8624040,"coordination","trial",1358,1,"left",14,"15soloseinsieme.png","14.png",0,"UP","SP","UP",1,0,4.3979057591623
"482",8624040,"coordination","trial",1987.00000000003,2,"right",6,"6.png","15soloseinsieme.png",0,"SP","UP","UP",1,0,12.2513089005236
"483",8624040,"coordination","trial",1136,3,"left",8,"15soloseinsieme.png","8.png",0,"UP","SP","UP",1,0,10.0523560209424
"484",8624040,"coordination","trial",1036.00000000003,4,"right",1,"1.png","15soloseinsieme.png",0,"SP","UP","UP",1,NA,14.1361256544503
"485",8624040,"coordination","trial",885,5,"right",15,"15.png","15soloseinsieme.png",0,"SP","UP","UP",1,0,3.61256544502618
"486",8624040,"coordination","trial",2569,6,"right",9,"9.png","15soloseinsieme.png",0,"SP","UP","UP",1,0,8.87434554973822
"487",8624040,"coordination","trial",8236,7,"right",12,"15soloseinsieme.png","12.png",0,"UP","SP","SP",0,0,12
"488",8624040,"coordination","trial",1704,8,"right",2,"2.png","15soloseinsieme.png",0,"SP","UP","UP",1,0,13.979057591623
"489",8624040,"coordination","trial",1187,9,"left",11,"11.png","15soloseinsieme.png",0,"SP","UP","SP",0,0,11
"490",8624040,"coordination","trial",1052,10,"right",13,"13.png","15soloseinsieme.png",0,"SP","UP","UP",1,1,5.34031413612565
"491",8624040,"coordination","trial",1636,11,"left",3,"15soloseinsieme.png","3.png",0,"UP","SP","UP",1,0,13.979057591623
"492",8624040,"coordination","trial",1355.00000000003,12,"right",10,"15soloseinsieme.png","10.png",0,"UP","SP","SP",0,1,10
"493",8624040,"coordination","trial",1252,13,"right",4,"4.png","15soloseinsieme.png",0,"SP","UP","UP",1,0,13.979057591623
"494",8624040,"coordination","trial",1103,14,"right",7,"7.png","15soloseinsieme.png",0,"SP","UP","UP",1,0,10.8376963350785
"495",8624040,"coordination","trial",1753,15,"left",5,"15soloseinsieme.png","5.png",0,"UP","SP","UP",1,0,13.1937172774869
"496",8624054,"coordination","trial",5284.152,1,"left",3,"15soloseinsieme.png","3.png",0,"UP","SP","UP",1,0,13.979057591623
"497",8624054,"coordination","trial",4771.21699999963,2,"left",5,"15soloseinsieme.png","5.png",0,"UP","SP","UP",1,0,13.1937172774869
"498",8624054,"coordination","trial",1499.98600000075,3,"left",14,"15soloseinsieme.png","14.png",0,"UP","SP","UP",1,0,4.3979057591623
"499",8624054,"coordination","trial",1710.78800000074,4,"right",12,"12.png","15soloseinsieme.png",0,"SP","UP","UP",1,0,5.49738219895288
"500",8624054,"coordination","trial",1055.16699999963,5,"right",2,"2.png","15soloseinsieme.png",0,"SP","UP","UP",1,0,13.979057591623
"501",8624054,"coordination","trial",2193.08399999999,6,"right",13,"13.png","15soloseinsieme.png",0,"SP","UP","UP",1,0,5.34031413612565
"502",8624054,"coordination","trial",1485.825,7,"right",6,"6.png","15soloseinsieme.png",0,"SP","UP","UP",1,0,12.2513089005236
"503",8624054,"coordination","trial",1746.117,8,"right",15,"15.png","15soloseinsieme.png",0,"SP","UP","UP",1,0,3.61256544502618
"504",8624054,"coordination","trial",1739.83400000074,9,"left",7,"15soloseinsieme.png","7.png",0,"UP","SP","UP",1,0,10.8376963350785
"505",8624054,"coordination","trial",1924.96599999963,10,"right",11,"11.png","15soloseinsieme.png",0,"SP","UP","UP",1,0,6.83246073298429
"506",8624054,"coordination","trial",1668.69700000074,11,"left",8,"15soloseinsieme.png","8.png",0,"UP","SP","UP",1,0,10.0523560209424
"507",8624054,"coordination","trial",1598.628,12,"right",9,"9.png","15soloseinsieme.png",0,"SP","UP","UP",1,0,8.87434554973822
"508",8624054,"coordination","trial",1257.51099999963,13,"right",10,"10.png","15soloseinsieme.png",0,"SP","UP","UP",1,0,6.91099476439791
"509",8624054,"coordination","trial",1022.88399999963,14,"right",1,"1.png","15soloseinsieme.png",0,"SP","UP","UP",1,NA,14.1361256544503
"510",8624054,"coordination","trial",632.200000000004,15,"right",4,"4.png","15soloseinsieme.png",0,"SP","UP","UP",1,0,13.979057591623
"511",8624054,"competition","trial",3213.03000000037,1,"left",15,"15.png","15solosesoli.png",0,"SP","UP","SP",0,0,15
"512",8624054,"competition","trial",1166.94899999925,2,"right",6,"15solosesoli.png","6.png",0,"UP","SP","SP",0,0,6
"513",8624054,"competition","trial",997.888999999996,3,"left",11,"11.png","15solosesoli.png",0,"SP","UP","SP",0,0,11
"514",8624054,"competition","trial",952.284,4,"right",3,"15solosesoli.png","3.png",0,"UP","SP","SP",0,0,3
"515",8624054,"competition","trial",923.153000000748,5,"left",9,"9.png","15solosesoli.png",0,"SP","UP","SP",0,0,9
"516",8624054,"competition","trial",6181.53199999999,6,"left",8,"8.png","15solosesoli.png",0,"SP","UP","SP",0,0,8
"517",8624054,"competition","trial",1908.01899999926,7,"left",10,"10.png","15solosesoli.png",0,"SP","UP","SP",0,0,10
"518",8624054,"competition","trial",1117.76600000075,8,"right",4,"15solosesoli.png","4.png",0,"UP","SP","SP",0,0,4
"519",8624054,"competition","trial",1208.38900000037,9,"left",5,"5.png","15solosesoli.png",0,"SP","UP","SP",0,0,5
"520",8624054,"competition","trial",1131.83099999925,10,"right",14,"15solosesoli.png","14.png",0,"UP","SP","SP",0,0,14
"521",8624054,"competition","trial",1521.01399999963,11,"right",7,"15solosesoli.png","7.png",0,"UP","SP","SP",0,0,7
"522",8624054,"competition","trial",1091.70599999925,12,"left",2,"2.png","15solosesoli.png",0,"SP","UP","SP",0,0,2
"523",8624054,"competition","trial",1960.15800000001,13,"right",13,"15solosesoli.png","13.png",0,"UP","SP","SP",0,0,13
"524",8624054,"competition","trial",1684.92999999925,14,"right",1,"15solosesoli.png","1.png",0,"UP","SP","SP",0,NA,1
"525",8624054,"competition","trial",1153.274,15,"left",12,"12.png","15solosesoli.png",0,"SP","UP","SP",0,0,12
"526",8624054,"lottery","trial",2529.00399999926,1,"left",15,"15.png","15soloseacaso.png",0,"SP","UP","SP",0,0,15
"527",8624054,"lottery","trial",4342.20199999925,2,"right",11,"15soloseacaso.png","11.png",0,"UP","SP","SP",0,0,11
"528",8624054,"lottery","trial",1446.97100000075,3,"right",14,"15soloseacaso.png","14.png",0,"UP","SP","SP",0,0,14
"529",8624054,"lottery","trial",1170.06100000037,4,"right",13,"15soloseacaso.png","13.png",0,"UP","SP","SP",0,0,13
"530",8624054,"lottery","trial",1289.86099999963,5,"left",2,"15soloseacaso.png","2.png",0,"UP","SP","UP",1,0,7.5
"531",8624054,"lottery","trial",2711.70400000074,6,"right",8,"15soloseacaso.png","8.png",0,"UP","SP","SP",0,0,8
"532",8624054,"lottery","trial",1500.08700000074,7,"right",9,"15soloseacaso.png","9.png",0,"UP","SP","SP",0,0,9
"533",8624054,"lottery","trial",2104.446,8,"right",5,"5.png","15soloseacaso.png",0,"SP","UP","UP",1,1,7.5
"534",8624054,"lottery","trial",1337.25600000037,9,"left",7,"7.png","15soloseacaso.png",0,"SP","UP","SP",0,1,7
"535",8624054,"lottery","trial",1541.29899999924,10,"right",10,"15soloseacaso.png","10.png",0,"UP","SP","SP",0,0,10
"536",8624054,"lottery","trial",1253.65499999924,11,"left",1,"15soloseacaso.png","1.png",0,"UP","SP","UP",1,NA,7.5
"537",8624054,"lottery","trial",2657.514,12,"left",4,"4.png","15soloseacaso.png",0,"SP","UP","SP",0,1,4
"538",8624054,"lottery","trial",1398.65500000038,13,"right",3,"3.png","15soloseacaso.png",0,"SP","UP","UP",1,0,7.5
"539",8624054,"lottery","trial",4292.288,14,"right",6,"6.png","15soloseacaso.png",0,"SP","UP","UP",1,0,7.5
"540",8624054,"lottery","trial",1165.98499999926,15,"right",12,"15soloseacaso.png","12.png",0,"UP","SP","SP",0,0,12
"541",8728582,"lottery","trial",4321,1,"right",11,"15soloseacaso.png","11.png",0,"UP","SP","SP",0,0,11
"542",8728582,"lottery","trial",4184,2,"left",15,"15.png","15soloseacaso.png",0,"SP","UP","SP",0,0,15
"543",8728582,"lottery","trial",3417,3,"right",2,"2.png","15soloseacaso.png",0,"SP","UP","UP",1,0,7.5
"544",8728582,"lottery","trial",6304,4,"right",6,"15soloseacaso.png","6.png",0,"UP","SP","SP",0,1,6
"545",8728582,"lottery","trial",2153.00000000001,5,"left",10,"10.png","15soloseacaso.png",0,"SP","UP","SP",0,0,10
"546",8728582,"lottery","trial",1770,6,"right",4,"4.png","15soloseacaso.png",0,"SP","UP","UP",1,0,7.5
"547",8728582,"lottery","trial",1805,7,"right",3,"3.png","15soloseacaso.png",0,"SP","UP","UP",1,0,7.5
"548",8728582,"lottery","trial",2539,8,"left",9,"9.png","15soloseacaso.png",0,"SP","UP","SP",0,0,9
"549",8728582,"lottery","trial",1869,9,"left",14,"14.png","15soloseacaso.png",0,"SP","UP","SP",0,0,14
"550",8728582,"lottery","trial",2003,10,"left",8,"8.png","15soloseacaso.png",0,"SP","UP","SP",0,0,8
"551",8728582,"lottery","trial",3937,11,"right",7,"15soloseacaso.png","7.png",0,"UP","SP","SP",0,0,7
"552",8728582,"lottery","trial",1570,12,"right",5,"5.png","15soloseacaso.png",0,"SP","UP","UP",1,0,7.5
"553",8728582,"lottery","trial",2222,13,"left",12,"12.png","15soloseacaso.png",0,"SP","UP","SP",0,0,12
"554",8728582,"lottery","trial",2038.00000000001,14,"right",13,"15soloseacaso.png","13.png",0,"UP","SP","SP",0,0,13
"555",8728582,"lottery","trial",1685,15,"left",1,"15soloseacaso.png","1.png",0,"UP","SP","UP",1,NA,7.5
"556",8728582,"coordination","trial",3689,1,"right",10,"15soloseinsieme.png","10.png",0,"UP","SP","SP",0,0,10
"557",8728582,"coordination","trial",2404,2,"right",9,"15soloseinsieme.png","9.png",0,"UP","SP","SP",0,0,9
"558",8728582,"coordination","trial",2454,3,"right",7,"7.png","15soloseinsieme.png",0,"SP","UP","UP",1,0,10.8376963350785
"559",8728582,"coordination","trial",4100,4,"left",3,"15soloseinsieme.png","3.png",0,"UP","SP","UP",1,0,13.979057591623
"560",8728582,"coordination","trial",2387,5,"left",8,"8.png","15soloseinsieme.png",0,"SP","UP","SP",0,1,8
"561",8728582,"coordination","trial",1587,6,"left",12,"12.png","15soloseinsieme.png",0,"SP","UP","SP",0,0,12
"562",8728582,"coordination","trial",1937,7,"right",2,"2.png","15soloseinsieme.png",0,"SP","UP","UP",1,0,13.979057591623
"563",8728582,"coordination","trial",3187,8,"left",4,"15soloseinsieme.png","4.png",0,"UP","SP","UP",1,0,13.979057591623
"564",8728582,"coordination","trial",3351,9,"right",5,"5.png","15soloseinsieme.png",0,"SP","UP","UP",1,0,13.1937172774869
"565",8728582,"coordination","trial",5284,10,"right",1,"1.png","15soloseinsieme.png",0,"SP","UP","UP",1,NA,14.1361256544503
"566",8728582,"coordination","trial",9649,11,"right",11,"15soloseinsieme.png","11.png",0,"UP","SP","SP",0,0,11
"567",8728582,"coordination","trial",5614,12,"right",15,"15soloseinsieme.png","15.png",0,"UP","SP","SP",0,0,15
"568",8728582,"coordination","trial",1586,13,"left",6,"15soloseinsieme.png","6.png",0,"UP","SP","UP",1,0,12.2513089005236
"569",8728582,"coordination","trial",1854,14,"left",13,"13.png","15soloseinsieme.png",0,"SP","UP","SP",0,0,13
"570",8728582,"coordination","trial",1370,15,"right",14,"15soloseinsieme.png","14.png",0,"UP","SP","SP",0,0,14
"571",8728582,"competition","trial",14969,1,"right",1,"1.png","15solosesoli.png",1,"SP","UP","UP",1,NA,5.96858638743455
"572",8728582,"competition","trial",18317,2,"left",3,"15solosesoli.png","3.png",1,"UP","SP","UP",1,0,6.20418848167539
"573",8728582,"competition","trial",4534,3,"right",13,"15solosesoli.png","13.png",0,"UP","SP","SP",0,1,13
"574",8728582,"competition","trial",4472,4,"right",11,"11.png","15solosesoli.png",0,"SP","UP","UP",1,1,11.2303664921466
"575",8728582,"competition","trial",2671,5,"right",6,"15solosesoli.png","6.png",0,"UP","SP","SP",0,1,6
"576",8728582,"competition","trial",1687,6,"left",7,"7.png","15solosesoli.png",0,"SP","UP","SP",0,0,7
"577",8728582,"competition","trial",1786,7,"right",9,"15solosesoli.png","9.png",0,"UP","SP","SP",0,0,9
"578",8728582,"competition","trial",2071.00000000003,8,"right",14,"15solosesoli.png","14.png",0,"UP","SP","SP",0,0,14
"579",8728582,"competition","trial",5156,9,"right",5,"5.png","15solosesoli.png",0,"SP","UP","UP",1,0,7.30366492146597
"580",8728582,"competition","trial",1337,10,"left",8,"8.png","15solosesoli.png",0,"SP","UP","SP",0,0,8
"581",8728582,"competition","trial",1920,11,"left",15,"15.png","15solosesoli.png",0,"SP","UP","SP",0,0,15
"582",8728582,"competition","trial",3382,12,"right",4,"4.png","15solosesoli.png",0,"SP","UP","UP",1,0,7.46073298429319
"583",8728582,"competition","trial",5492,13,"left",10,"10.png","15solosesoli.png",0,"SP","UP","SP",0,0,10
"584",8728582,"competition","trial",6019,14,"left",12,"15solosesoli.png","12.png",0,"UP","SP","UP",1,0,11.4659685863874
"585",8728582,"competition","trial",6271,15,"left",2,"15solosesoli.png","2.png",0,"UP","SP","UP",1,0,5.96858638743455
"586",8728586,"lottery","trial",2799.06,1,"right",11,"15soloseacaso.png","11.png",0,"UP","SP","SP",0,0,11
"587",8728586,"lottery","trial",2564.9,2,"right",5,"5.png","15soloseacaso.png",0,"SP","UP","UP",1,1,7.5
"588",8728586,"lottery","trial",2570.08,3,"right",12,"15soloseacaso.png","12.png",0,"UP","SP","SP",0,0,12
"589",8728586,"lottery","trial",1483.24,4,"right",2,"2.png","15soloseacaso.png",0,"SP","UP","UP",1,0,7.5
"590",8728586,"lottery","trial",1702.08,5,"left",9,"9.png","15soloseacaso.png",0,"SP","UP","SP",0,0,9
"591",8728586,"lottery","trial",3370.22,6,"right",6,"15soloseacaso.png","6.png",0,"UP","SP","SP",0,1,6
"592",8728586,"lottery","trial",1776.74,7,"right",3,"3.png","15soloseacaso.png",0,"SP","UP","UP",1,0,7.5
"593",8728586,"lottery","trial",3488.16,8,"right",4,"15soloseacaso.png","4.png",0,"UP","SP","SP",0,1,4
"594",8728586,"lottery","trial",2027.16,9,"left",10,"10.png","15soloseacaso.png",0,"SP","UP","SP",0,0,10
"595",8728586,"lottery","trial",1778.6,10,"left",8,"8.png","15soloseacaso.png",0,"SP","UP","SP",0,0,8
"596",8728586,"lottery","trial",1638.1,11,"left",13,"13.png","15soloseacaso.png",0,"SP","UP","SP",0,0,13
"597",8728586,"lottery","trial",1612.86,12,"right",1,"1.png","15soloseacaso.png",0,"SP","UP","UP",1,NA,7.5
"598",8728586,"lottery","trial",5096.98,13,"left",7,"7.png","15soloseacaso.png",0,"SP","UP","SP",0,0,7
"599",8728586,"lottery","trial",2656.84,14,"right",14,"15soloseacaso.png","14.png",0,"UP","SP","SP",0,0,14
"600",8728586,"lottery","trial",3731.06,15,"right",15,"15soloseacaso.png","15.png",0,"UP","SP","SP",0,0,15
"601",8728586,"coordination","trial",3228.78,1,"right",14,"15soloseinsieme.png","14.png",0,"UP","SP","SP",0,0,14
"602",8728586,"coordination","trial",2429.53999999999,2,"right",3,"3.png","15soloseinsieme.png",0,"SP","UP","UP",1,0,13.979057591623
"603",8728586,"coordination","trial",1765.50000000001,3,"left",6,"6.png","15soloseinsieme.png",0,"SP","UP","SP",0,1,6
"604",8728586,"coordination","trial",2652.25999999999,4,"left",5,"15soloseinsieme.png","5.png",0,"UP","SP","UP",1,0,13.1937172774869
"605",8728586,"coordination","trial",2035.89999999999,5,"left",11,"11.png","15soloseinsieme.png",0,"SP","UP","SP",0,0,11
"606",8728586,"coordination","trial",1741.92,6,"left",15,"15.png","15soloseinsieme.png",0,"SP","UP","SP",0,0,15
"607",8728586,"coordination","trial",2027.75999999999,7,"left",10,"10.png","15soloseinsieme.png",0,"SP","UP","SP",0,0,10
"608",8728586,"coordination","trial",2156.22,8,"left",9,"9.png","15soloseinsieme.png",0,"SP","UP","SP",0,0,9
"609",8728586,"coordination","trial",1513.42,9,"left",12,"12.png","15soloseinsieme.png",0,"SP","UP","SP",0,0,12
"610",8728586,"coordination","trial",2002.42,10,"right",2,"2.png","15soloseinsieme.png",0,"SP","UP","UP",1,0,13.979057591623
"611",8728586,"coordination","trial",1791.66,11,"left",8,"8.png","15soloseinsieme.png",0,"SP","UP","SP",0,0,8
"612",8728586,"coordination","trial",1807.16,12,"left",13,"13.png","15soloseinsieme.png",0,"SP","UP","SP",0,0,13
"613",8728586,"coordination","trial",1277.62,13,"left",7,"7.png","15soloseinsieme.png",0,"SP","UP","SP",0,0,7
"614",8728586,"coordination","trial",1956.06,14,"left",4,"15soloseinsieme.png","4.png",0,"UP","SP","UP",1,0,13.979057591623
"615",8728586,"coordination","trial",2401.2,15,"left",1,"15soloseinsieme.png","1.png",0,"UP","SP","UP",1,NA,14.1361256544503
"616",8728586,"competition","trial",1764.5,1,"right",15,"15solosesoli.png","15.png",0,"UP","SP","SP",0,0,15
"617",8728586,"competition","trial",4242.64,2,"right",3,"15solosesoli.png","3.png",0,"UP","SP","SP",0,0,3
"618",8728586,"competition","trial",3401.94,3,"left",8,"8.png","15solosesoli.png",0,"SP","UP","SP",0,0,8
"619",8728586,"competition","trial",662.820000000007,4,"left",9,"9.png","15solosesoli.png",0,"SP","UP","SP",0,0,9
"620",8728586,"competition","trial",1173.88,5,"left",6,"6.png","15solosesoli.png",0,"SP","UP","SP",0,0,6
"621",8728586,"competition","trial",2463.32000000001,6,"right",4,"15solosesoli.png","4.png",0,"UP","SP","SP",0,0,4
"622",8728586,"competition","trial",1751.48000000001,7,"left",13,"13.png","15solosesoli.png",0,"SP","UP","SP",0,0,13
"623",8728586,"competition","trial",785.640000000014,8,"left",1,"1.png","15solosesoli.png",0,"SP","UP","SP",0,NA,1
"624",8728586,"competition","trial",2122.35999999999,9,"right",12,"15solosesoli.png","12.png",0,"UP","SP","SP",0,0,12
"625",8728586,"competition","trial",1287.79999999999,10,"left",7,"7.png","15solosesoli.png",0,"SP","UP","SP",0,0,7
"626",8728586,"competition","trial",1353.64000000001,11,"left",2,"2.png","15solosesoli.png",0,"SP","UP","SP",0,0,2
"627",8728586,"competition","trial",823.140000000014,12,"left",5,"5.png","15solosesoli.png",0,"SP","UP","SP",0,0,5
"628",8728586,"competition","trial",2323.17999999999,13,"right",14,"15solosesoli.png","14.png",0,"UP","SP","SP",0,0,14
"629",8728586,"competition","trial",1312.56,14,"left",10,"10.png","15solosesoli.png",0,"SP","UP","SP",0,0,10
"630",8728586,"competition","trial",1230.07999999999,15,"right",11,"15solosesoli.png","11.png",0,"UP","SP","SP",0,0,11
"631",8728610,"competition","trial",6809.506,1,"right",7,"7.png","15solosesoli.png",0,"SP","UP","UP",1,1,9.26701570680628
"632",8728610,"competition","trial",2409.29499995232,2,"left",4,"15solosesoli.png","4.png",0,"UP","SP","UP",1,0,7.46073298429319
"633",8728610,"competition","trial",1735.64400009537,3,"right",9,"15solosesoli.png","9.png",0,"UP","SP","SP",0,1,9
"634",8728610,"competition","trial",2170.18399995231,4,"left",10,"10.png","15solosesoli.png",0,"SP","UP","SP",0,0,10
"635",8728610,"competition","trial",1988.10500009537,5,"left",13,"13.png","15solosesoli.png",0,"SP","UP","SP",0,0,13
"636",8728610,"competition","trial",2787.54800009537,6,"left",14,"14.png","15solosesoli.png",0,"SP","UP","SP",0,0,14
"637",8728610,"competition","trial",1481.85500000001,7,"left",1,"15solosesoli.png","1.png",0,"UP","SP","UP",1,NA,5.96858638743455
"638",8728610,"competition","trial",2075.89500009537,8,"left",8,"15solosesoli.png","8.png",0,"UP","SP","UP",1,0,10.7591623036649
"639",8728610,"competition","trial",2253.30300009537,9,"left",6,"6.png","15solosesoli.png",0,"SP","UP","SP",0,1,6
"640",8728610,"competition","trial",1410.69899995231,10,"left",11,"11.png","15solosesoli.png",0,"SP","UP","SP",0,0,11
"641",8728610,"competition","trial",1331.753,11,"left",2,"15solosesoli.png","2.png",0,"UP","SP","UP",1,0,5.96858638743455
"642",8728610,"competition","trial",1868.99499995232,12,"right",15,"15solosesoli.png","15.png",0,"UP","SP","SP",0,0,15
"643",8728610,"competition","trial",2447.842,13,"right",3,"3.png","15solosesoli.png",0,"SP","UP","UP",1,0,6.20418848167539
"644",8728610,"competition","trial",2047.07600009537,14,"right",5,"5.png","15solosesoli.png",0,"SP","UP","UP",1,0,7.30366492146597
"645",8728610,"competition","trial",3737.879,15,"left",12,"12.png","15solosesoli.png",0,"SP","UP","SP",0,0,12
"646",8728610,"coordination","trial",2155.08000009536,1,"left",5,"15soloseinsieme.png","5.png",0,"UP","SP","UP",1,0,13.1937172774869
"647",8728610,"coordination","trial",2997.27600000001,2,"left",13,"13.png","15soloseinsieme.png",0,"SP","UP","SP",0,0,13
"648",8728610,"coordination","trial",1509.092,3,"left",8,"15soloseinsieme.png","8.png",0,"UP","SP","UP",1,0,10.0523560209424
"649",8728610,"coordination","trial",1698.36600000001,4,"right",4,"4.png","15soloseinsieme.png",0,"SP","UP","UP",1,0,13.979057591623
"650",8728610,"coordination","trial",1085.171,5,"right",2,"2.png","15soloseinsieme.png",0,"SP","UP","UP",1,0,13.979057591623
"651",8728610,"coordination","trial",1335.39600014305,6,"left",6,"15soloseinsieme.png","6.png",0,"UP","SP","UP",1,0,12.2513089005236
"652",8728610,"coordination","trial",1103.89000004769,7,"left",9,"15soloseinsieme.png","9.png",0,"UP","SP","UP",1,0,8.87434554973822
"653",8728610,"coordination","trial",1461.46899995231,8,"right",3,"3.png","15soloseinsieme.png",0,"SP","UP","UP",1,0,13.979057591623
"654",8728610,"coordination","trial",2338.69100004768,9,"right",15,"15soloseinsieme.png","15.png",0,"UP","SP","SP",0,0,15
"655",8728610,"coordination","trial",2108.257,10,"left",12,"12.png","15soloseinsieme.png",0,"SP","UP","SP",0,1,12
"656",8728610,"coordination","trial",1080.175,11,"left",10,"15soloseinsieme.png","10.png",0,"UP","SP","UP",1,0,6.91099476439791
"657",8728610,"coordination","trial",1523.88200009537,12,"left",1,"15soloseinsieme.png","1.png",0,"UP","SP","UP",1,NA,14.1361256544503
"658",8728610,"coordination","trial",3261.93200014305,13,"right",11,"11.png","15soloseinsieme.png",0,"SP","UP","UP",1,0,6.83246073298429
"659",8728610,"coordination","trial",1087.15899995231,14,"right",7,"7.png","15soloseinsieme.png",0,"SP","UP","UP",1,0,10.8376963350785
"660",8728610,"coordination","trial",1210.36500000001,15,"left",14,"14.png","15soloseinsieme.png",0,"SP","UP","SP",0,0,14
"661",8728610,"lottery","trial",3340.21200009537,1,"right",12,"15soloseacaso.png","12.png",0,"UP","SP","SP",0,0,12
"662",8728610,"lottery","trial",2647.30899999998,2,"left",8,"15soloseacaso.png","8.png",0,"UP","SP","UP",1,1,7.5
"663",8728610,"lottery","trial",1347.11199995232,3,"left",4,"15soloseacaso.png","4.png",0,"UP","SP","UP",1,0,7.5
"664",8728610,"lottery","trial",1235.76800014306,4,"left",5,"5.png","15soloseacaso.png",0,"SP","UP","SP",0,1,5
"665",8728610,"lottery","trial",1170.6690000477,5,"right",11,"15soloseacaso.png","11.png",0,"UP","SP","SP",0,0,11
"666",8728610,"lottery","trial",2262.50300014304,6,"left",10,"10.png","15soloseacaso.png",0,"SP","UP","SP",0,0,10
"667",8728610,"lottery","trial",1998.30499999999,7,"left",13,"13.png","15soloseacaso.png",0,"SP","UP","SP",0,0,13
"668",8728610,"lottery","trial",1551.55100004768,8,"right",15,"15soloseacaso.png","15.png",0,"UP","SP","SP",0,0,15
"669",8728610,"lottery","trial",1597.29199999999,9,"left",3,"15soloseacaso.png","3.png",0,"UP","SP","UP",1,0,7.5
"670",8728610,"lottery","trial",1227.94500000001,10,"right",1,"1.png","15soloseacaso.png",0,"SP","UP","UP",1,NA,7.5
"671",8728610,"lottery","trial",755.826000000001,11,"left",7,"7.png","15soloseacaso.png",0,"SP","UP","SP",0,0,7
"672",8728610,"lottery","trial",1014.024,12,"left",6,"6.png","15soloseacaso.png",0,"SP","UP","SP",0,0,6
"673",8728610,"lottery","trial",1728.16699995231,13,"right",9,"15soloseacaso.png","9.png",0,"UP","SP","SP",0,1,9
"674",8728610,"lottery","trial",1164.21100009535,14,"left",2,"15soloseacaso.png","2.png",0,"UP","SP","UP",1,0,7.5
"675",8728610,"lottery","trial",902.150000095367,15,"left",14,"14.png","15soloseacaso.png",0,"SP","UP","SP",0,0,14
"676",8728581,"lottery","trial",2565,1,"right",14,"15soloseacaso.png","14.png",0,"UP","SP","SP",0,0,14
"677",8728581,"lottery","trial",10676,2,"right",8,"15soloseacaso.png","8.png",0,"UP","SP","SP",0,1,8
"678",8728581,"lottery","trial",3330,3,"left",10,"10.png","15soloseacaso.png",0,"SP","UP","SP",0,0,10
"679",8728581,"lottery","trial",1282,4,"left",1,"15soloseacaso.png","1.png",0,"UP","SP","UP",1,NA,7.5
"680",8728581,"lottery","trial",2801,5,"right",7,"7.png","15soloseacaso.png",0,"SP","UP","UP",1,0,7.5
"681",8728581,"lottery","trial",7962,6,"left",6,"15soloseacaso.png","6.png",0,"UP","SP","UP",1,0,7.5
"682",8728581,"lottery","trial",1331,7,"left",4,"15soloseacaso.png","4.png",0,"UP","SP","UP",1,0,7.5
"683",8728581,"lottery","trial",1319,8,"left",13,"13.png","15soloseacaso.png",0,"SP","UP","SP",0,0,13
"684",8728581,"lottery","trial",1265,9,"left",3,"15soloseacaso.png","3.png",0,"UP","SP","UP",1,0,7.5
"685",8728581,"lottery","trial",1065,10,"left",2,"15soloseacaso.png","2.png",0,"UP","SP","UP",1,0,7.5
"686",8728581,"lottery","trial",1233,11,"right",15,"15soloseacaso.png","15.png",0,"UP","SP","SP",0,0,15
"687",8728581,"lottery","trial",1133,12,"right",12,"15soloseacaso.png","12.png",0,"UP","SP","SP",0,0,12
"688",8728581,"lottery","trial",1465,13,"left",9,"9.png","15soloseacaso.png",0,"SP","UP","SP",0,0,9
"689",8728581,"lottery","trial",1333,14,"left",5,"15soloseacaso.png","5.png",0,"UP","SP","UP",1,0,7.5
"690",8728581,"lottery","trial",1053,15,"right",11,"15soloseacaso.png","11.png",0,"UP","SP","SP",0,0,11
"691",8728581,"coordination","trial",1485,1,"right",2,"2.png","15soloseinsieme.png",0,"SP","UP","UP",1,0,13.979057591623
"692",8728581,"coordination","trial",1652,2,"right",8,"8.png","15soloseinsieme.png",0,"SP","UP","UP",1,0,10.0523560209424
"693",8728581,"coordination","trial",1032,3,"left",12,"12.png","15soloseinsieme.png",0,"SP","UP","SP",0,0,12
"694",8728581,"coordination","trial",1203,4,"left",15,"15.png","15soloseinsieme.png",0,"SP","UP","SP",0,0,15
"695",8728581,"coordination","trial",3781,5,"left",7,"15soloseinsieme.png","7.png",0,"UP","SP","UP",1,0,10.8376963350785
"696",8728581,"coordination","trial",1998,6,"left",9,"15soloseinsieme.png","9.png",0,"UP","SP","UP",1,0,8.87434554973822
"697",8728581,"coordination","trial",967,7,"right",13,"15soloseinsieme.png","13.png",0,"UP","SP","SP",0,0,13
"698",8728581,"coordination","trial",950,8,"left",1,"15soloseinsieme.png","1.png",0,"UP","SP","UP",1,NA,14.1361256544503
"699",8728581,"coordination","trial",1116,9,"right",6,"6.png","15soloseinsieme.png",0,"SP","UP","UP",1,0,12.2513089005236
"700",8728581,"coordination","trial",1303,10,"right",4,"4.png","15soloseinsieme.png",0,"SP","UP","UP",1,0,13.979057591623
"701",8728581,"coordination","trial",1035,11,"left",3,"15soloseinsieme.png","3.png",0,"UP","SP","UP",1,0,13.979057591623
"702",8728581,"coordination","trial",1301,12,"right",14,"15soloseinsieme.png","14.png",0,"UP","SP","SP",0,0,14
"703",8728581,"coordination","trial",2119,13,"left",11,"11.png","15soloseinsieme.png",0,"SP","UP","SP",0,0,11
"704",8728581,"coordination","trial",1933,14,"right",10,"15soloseinsieme.png","10.png",0,"UP","SP","SP",0,1,10
"705",8728581,"coordination","trial",1002,15,"left",5,"15soloseinsieme.png","5.png",0,"UP","SP","UP",1,0,13.1937172774869
"706",8728581,"competition","trial",1215,1,"right",15,"15solosesoli.png","15.png",0,"UP","SP","SP",0,0,15
"707",8728581,"competition","trial",3148,2,"left",7,"7.png","15solosesoli.png",0,"SP","UP","SP",0,1,7
"708",8728581,"competition","trial",1398,3,"right",10,"15solosesoli.png","10.png",0,"UP","SP","SP",0,0,10
"709",8728581,"competition","trial",1119,4,"right",4,"4.png","15solosesoli.png",0,"SP","UP","UP",1,1,7.46073298429319
"710",8728581,"competition","trial",1165,5,"right",12,"15solosesoli.png","12.png",0,"UP","SP","SP",0,0,12
"711",8728581,"competition","trial",2048,6,"left",1,"15solosesoli.png","1.png",0,"UP","SP","UP",1,NA,5.96858638743455
"712",8728581,"competition","trial",2597,7,"left",9,"9.png","15solosesoli.png",0,"SP","UP","SP",0,0,9
"713",8728581,"competition","trial",884,8,"right",14,"15solosesoli.png","14.png",0,"UP","SP","SP",0,0,14
"714",8728581,"competition","trial",945,9,"left",2,"15solosesoli.png","2.png",0,"UP","SP","UP",1,0,5.96858638743455
"715",8728581,"competition","trial",4367,10,"left",5,"5.png","15solosesoli.png",0,"SP","UP","SP",0,1,5
"716",8728581,"competition","trial",1225,11,"right",8,"15solosesoli.png","8.png",0,"UP","SP","SP",0,0,8
"717",8728581,"competition","trial",7712,12,"right",6,"6.png","15solosesoli.png",0,"SP","UP","UP",1,1,8.95287958115183
"718",8728581,"competition","trial",1250,13,"right",11,"15solosesoli.png","11.png",0,"UP","SP","SP",0,0,11
"719",8728581,"competition","trial",1032,14,"left",13,"13.png","15solosesoli.png",0,"SP","UP","SP",0,0,13
"720",8728581,"competition","trial",2099,15,"right",3,"15solosesoli.png","3.png",0,"UP","SP","SP",0,1,3
"721",8728576,"lottery","trial",8332.99900000001,1,"left",11,"11.png","15soloseacaso.png",0,"SP","UP","SP",0,0,11
"722",8728576,"lottery","trial",6299.75,2,"left",9,"9.png","15soloseacaso.png",0,"SP","UP","SP",0,0,9
"723",8728576,"lottery","trial",3882.7,3,"right",12,"15soloseacaso.png","12.png",0,"UP","SP","SP",0,0,12
"724",8728576,"lottery","trial",4192.78000019074,4,"left",1,"15soloseacaso.png","1.png",0,"UP","SP","UP",1,NA,7.5
"725",8728576,"lottery","trial",4861.57100019074,5,"right",10,"15soloseacaso.png","10.png",0,"UP","SP","SP",0,0,10
"726",8728576,"lottery","trial",2344.52600014305,6,"right",14,"15soloseacaso.png","14.png",0,"UP","SP","SP",0,0,14
"727",8728576,"lottery","trial",3054.657,7,"left",15,"15.png","15soloseacaso.png",0,"SP","UP","SP",0,0,15
"728",8728576,"lottery","trial",1952.756,8,"left",13,"13.png","15soloseacaso.png",0,"SP","UP","SP",0,0,13
"729",8728576,"lottery","trial",14424.6230001907,9,"right",5,"15soloseacaso.png","5.png",1,"UP","SP","SP",0,1,5
"730",8728576,"lottery","trial",2363.25000004769,10,"left",7,"7.png","15soloseacaso.png",0,"SP","UP","SP",0,0,7
"731",8728576,"lottery","trial",1643.65700000001,11,"left",4,"15soloseacaso.png","4.png",0,"UP","SP","UP",1,0,7.5
"732",8728576,"lottery","trial",2333.308,12,"right",2,"2.png","15soloseacaso.png",0,"SP","UP","UP",1,0,7.5
"733",8728576,"lottery","trial",3933.23599999999,13,"left",6,"6.png","15soloseacaso.png",0,"SP","UP","SP",0,0,6
"734",8728576,"lottery","trial",1521.26400009537,14,"left",3,"15soloseacaso.png","3.png",0,"UP","SP","UP",1,0,7.5
"735",8728576,"lottery","trial",2164.12300000001,15,"right",8,"15soloseacaso.png","8.png",0,"UP","SP","SP",0,0,8
"736",8728576,"competition","trial",15548.9010001907,1,"left",12,"12.png","15solosesoli.png",1,"SP","UP","SP",0,0,12
"737",8728576,"competition","trial",2853.02100019074,2,"left",5,"15solosesoli.png","5.png",0,"UP","SP","UP",1,0,7.30366492146597
"738",8728576,"competition","trial",3913.11200019074,3,"left",8,"8.png","15solosesoli.png",0,"SP","UP","SP",0,1,8
"739",8728576,"competition","trial",3629.33400009538,4,"right",3,"3.png","15solosesoli.png",0,"SP","UP","UP",1,0,6.20418848167539
"740",8728576,"competition","trial",4299.34400000001,5,"right",11,"15solosesoli.png","11.png",0,"UP","SP","SP",0,0,11
"741",8728576,"competition","trial",2361.34700004768,6,"left",13,"13.png","15solosesoli.png",0,"SP","UP","SP",0,0,13
"742",8728576,"competition","trial",1271.44500004768,7,"left",6,"15solosesoli.png","6.png",0,"UP","SP","UP",1,0,8.95287958115183
"743",8728576,"competition","trial",3786.71500014304,8,"right",4,"4.png","15solosesoli.png",0,"SP","UP","UP",1,0,7.46073298429319
"744",8728576,"competition","trial",1102.81300009537,9,"left",1,"15solosesoli.png","1.png",0,"UP","SP","UP",1,NA,5.96858638743455
"745",8728576,"competition","trial",1335.2150000477,10,"right",14,"15solosesoli.png","14.png",0,"UP","SP","SP",0,0,14
"746",8728576,"competition","trial",5002.67600000001,11,"right",9,"15solosesoli.png","9.png",0,"UP","SP","SP",0,0,9
"747",8728576,"competition","trial",903.901000143058,12,"left",15,"15.png","15solosesoli.png",0,"SP","UP","SP",0,0,15
"748",8728576,"competition","trial",2959.67100009538,13,"left",7,"15solosesoli.png","7.png",0,"UP","SP","UP",1,0,9.26701570680628
"749",8728576,"competition","trial",2149.75600019074,14,"right",2,"2.png","15solosesoli.png",0,"SP","UP","UP",1,0,5.96858638743455
"750",8728576,"competition","trial",9274.28400014306,15,"right",10,"15solosesoli.png","10.png",0,"UP","SP","SP",0,0,10
"751",8728576,"coordination","trial",1422.875,1,"left",8,"15soloseinsieme.png","8.png",0,"UP","SP","UP",1,0,10.0523560209424
"752",8728576,"coordination","trial",829.960000047693,2,"left",6,"15soloseinsieme.png","6.png",0,"UP","SP","UP",1,0,12.2513089005236
"753",8728576,"coordination","trial",1166.85100000002,3,"right",10,"10.png","15soloseinsieme.png",0,"SP","UP","UP",1,0,6.91099476439791
"754",8728576,"coordination","trial",560.479000190739,4,"right",2,"2.png","15soloseinsieme.png",0,"SP","UP","UP",1,0,13.979057591623
"755",8728576,"coordination","trial",611.706000000006,5,"right",15,"15.png","15soloseinsieme.png",0,"SP","UP","UP",1,0,3.61256544502618
"756",8728576,"coordination","trial",601.542000190733,6,"right",9,"9.png","15soloseinsieme.png",0,"SP","UP","UP",1,0,8.87434554973822
"757",8728576,"coordination","trial",962.189000000013,7,"left",1,"15soloseinsieme.png","1.png",0,"UP","SP","UP",1,NA,14.1361256544503
"758",8728576,"coordination","trial",1181.01300004768,8,"right",12,"12.png","15soloseinsieme.png",0,"SP","UP","UP",1,0,5.49738219895288
"759",8728576,"coordination","trial",588.897000047669,9,"right",4,"4.png","15soloseinsieme.png",0,"SP","UP","UP",1,0,13.979057591623
"760",8728576,"coordination","trial",1016.57400004769,10,"left",7,"15soloseinsieme.png","7.png",0,"UP","SP","UP",1,0,10.8376963350785
"761",8728576,"coordination","trial",1068.42999999999,11,"right",11,"11.png","15soloseinsieme.png",0,"SP","UP","UP",1,0,6.83246073298429
"762",8728576,"coordination","trial",521.306000000011,12,"right",14,"14.png","15soloseinsieme.png",0,"SP","UP","UP",1,0,4.3979057591623
"763",8728576,"coordination","trial",1070.45600019072,13,"left",13,"15soloseinsieme.png","13.png",0,"UP","SP","UP",1,0,5.34031413612565
"764",8728576,"coordination","trial",571.735000047687,14,"left",5,"15soloseinsieme.png","5.png",0,"UP","SP","UP",1,0,13.1937172774869
"765",8728576,"coordination","trial",918.809000095382,15,"right",3,"3.png","15soloseinsieme.png",0,"SP","UP","UP",1,0,13.979057591623
"766",8758719,"coordination","trial",851,1,"left",14,"15soloseinsieme.png","14.png",0,"UP","SP","UP",1,0,4.3979057591623
"767",8758719,"coordination","trial",700,2,"left",5,"15soloseinsieme.png","5.png",0,"UP","SP","UP",1,0,13.1937172774869
"768",8758719,"coordination","trial",883,3,"left",1,"15soloseinsieme.png","1.png",0,"UP","SP","UP",1,NA,14.1361256544503
"769",8758719,"coordination","trial",717,4,"right",9,"9.png","15soloseinsieme.png",0,"SP","UP","UP",1,0,8.87434554973822
"770",8758719,"coordination","trial",699,5,"right",2,"2.png","15soloseinsieme.png",0,"SP","UP","UP",1,0,13.979057591623
"771",8758719,"coordination","trial",716,6,"left",8,"15soloseinsieme.png","8.png",0,"UP","SP","UP",1,0,10.0523560209424
"772",8758719,"coordination","trial",734,7,"left",7,"15soloseinsieme.png","7.png",0,"UP","SP","UP",1,0,10.8376963350785
"773",8758719,"coordination","trial",900,8,"left",12,"15soloseinsieme.png","12.png",0,"UP","SP","UP",1,0,5.49738219895288
"774",8758719,"coordination","trial",634,9,"left",10,"15soloseinsieme.png","10.png",0,"UP","SP","UP",1,0,6.91099476439791
"775",8758719,"coordination","trial",683,10,"right",15,"15.png","15soloseinsieme.png",0,"SP","UP","UP",1,0,3.61256544502618
"776",8758719,"coordination","trial",717,11,"left",13,"15soloseinsieme.png","13.png",0,"UP","SP","UP",1,0,5.34031413612565
"777",8758719,"coordination","trial",584,12,"right",4,"4.png","15soloseinsieme.png",0,"SP","UP","UP",1,0,13.979057591623
"778",8758719,"coordination","trial",1000,13,"right",11,"11.png","15soloseinsieme.png",0,"SP","UP","UP",1,0,6.83246073298429
"779",8758719,"coordination","trial",732,14,"left",3,"15soloseinsieme.png","3.png",0,"UP","SP","UP",1,0,13.979057591623
"780",8758719,"coordination","trial",734,15,"left",6,"15soloseinsieme.png","6.png",0,"UP","SP","UP",1,0,12.2513089005236
"781",8758719,"lottery","trial",2217,1,"left",1,"1.png","15soloseacaso.png",0,"SP","UP","SP",0,NA,1
"782",8758719,"lottery","trial",850,2,"right",9,"15soloseacaso.png","9.png",0,"UP","SP","SP",0,0,9
"783",8758719,"lottery","trial",1934,3,"right",3,"15soloseacaso.png","3.png",0,"UP","SP","SP",0,0,3
"784",8758719,"lottery","trial",1333,4,"right",7,"15soloseacaso.png","7.png",0,"UP","SP","SP",0,0,7
"785",8758719,"lottery","trial",1367,5,"right",14,"14.png","15soloseacaso.png",0,"SP","UP","UP",1,1,7.5
"786",8758719,"lottery","trial",1250,6,"right",10,"10.png","15soloseacaso.png",0,"SP","UP","UP",1,1,7.5
"787",8758719,"lottery","trial",1263,7,"right",2,"15soloseacaso.png","2.png",0,"UP","SP","SP",0,0,2
"788",8758719,"lottery","trial",932,8,"right",5,"15soloseacaso.png","5.png",0,"UP","SP","SP",0,0,5
"789",8758719,"lottery","trial",984,9,"right",13,"15soloseacaso.png","13.png",0,"UP","SP","SP",0,0,13
"790",8758719,"lottery","trial",2134,10,"right",11,"11.png","15soloseacaso.png",0,"SP","UP","UP",1,0,7.5
"791",8758719,"lottery","trial",983,11,"right",6,"15soloseacaso.png","6.png",0,"UP","SP","SP",0,0,6
"792",8758719,"lottery","trial",967,12,"right",8,"15soloseacaso.png","8.png",0,"UP","SP","SP",0,0,8
"793",8758719,"lottery","trial",1100,13,"left",15,"15.png","15soloseacaso.png",0,"SP","UP","SP",0,1,15
"794",8758719,"lottery","trial",884,14,"left",12,"12.png","15soloseacaso.png",0,"SP","UP","SP",0,1,12
"795",8758719,"lottery","trial",1350,15,"left",4,"4.png","15soloseacaso.png",0,"SP","UP","SP",0,0,4
"796",8758719,"competition","trial",9149,1,"left",2,"2.png","15solosesoli.png",0,"SP","UP","SP",0,0,2
"797",8758719,"competition","trial",2349,2,"left",3,"3.png","15solosesoli.png",0,"SP","UP","SP",0,0,3
"798",8758719,"competition","trial",784,3,"left",5,"5.png","15solosesoli.png",0,"SP","UP","SP",0,0,5
"799",8758719,"competition","trial",983,4,"left",6,"6.png","15solosesoli.png",0,"SP","UP","SP",0,0,6
"800",8758719,"competition","trial",2217,5,"right",10,"15solosesoli.png","10.png",0,"UP","SP","SP",0,0,10
"801",8758719,"competition","trial",850,6,"left",12,"15solosesoli.png","12.png",0,"UP","SP","UP",1,1,11.4659685863874
"802",8758719,"competition","trial",866,7,"left",7,"7.png","15solosesoli.png",0,"SP","UP","SP",0,0,7
"803",8758719,"competition","trial",1984,8,"right",1,"15solosesoli.png","1.png",0,"UP","SP","SP",0,NA,1
"804",8758719,"competition","trial",2184,9,"left",9,"9.png","15solosesoli.png",0,"SP","UP","SP",0,0,9
"805",8758719,"competition","trial",1049,10,"left",13,"15solosesoli.png","13.png",0,"UP","SP","UP",1,0,11.8586387434555
"806",8758719,"competition","trial",867,11,"right",15,"15solosesoli.png","15.png",0,"UP","SP","SP",0,0,15
"807",8758719,"competition","trial",849,12,"right",11,"15solosesoli.png","11.png",0,"UP","SP","SP",0,0,11
"808",8758719,"competition","trial",834,13,"right",14,"15solosesoli.png","14.png",0,"UP","SP","SP",0,1,14
"809",8758719,"competition","trial",817,14,"right",4,"15solosesoli.png","4.png",0,"UP","SP","SP",0,0,4
"810",8758719,"competition","trial",867,15,"right",8,"15solosesoli.png","8.png",0,"UP","SP","SP",0,0,8
"811",8766698,"coordination","trial",3978,1,"left",3,"15soloseinsieme.png","3.png",0,"UP","SP","UP",1,0,13.979057591623
"812",8766698,"coordination","trial",4257,2,"right",13,"15soloseinsieme.png","13.png",0,"UP","SP","SP",0,0,13
"813",8766698,"coordination","trial",3458,3,"left",5,"15soloseinsieme.png","5.png",0,"UP","SP","UP",1,0,13.1937172774869
"814",8766698,"coordination","trial",2937,4,"left",14,"14.png","15soloseinsieme.png",0,"SP","UP","SP",0,0,14
"815",8766698,"coordination","trial",2704,5,"right",12,"15soloseinsieme.png","12.png",0,"UP","SP","SP",0,0,12
"816",8766698,"coordination","trial",2853.00000000001,6,"right",10,"15soloseinsieme.png","10.png",0,"UP","SP","SP",0,0,10
"817",8766698,"coordination","trial",1472,7,"left",2,"15soloseinsieme.png","2.png",0,"UP","SP","UP",1,0,13.979057591623
"818",8766698,"coordination","trial",1767,8,"left",4,"15soloseinsieme.png","4.png",0,"UP","SP","UP",1,0,13.979057591623
"819",8766698,"coordination","trial",2702,9,"right",7,"15soloseinsieme.png","7.png",0,"UP","SP","SP",0,1,7
"820",8766698,"coordination","trial",2133,10,"left",6,"15soloseinsieme.png","6.png",0,"UP","SP","UP",1,0,12.2513089005236
"821",8766698,"coordination","trial",2179.00000000001,11,"right",9,"15soloseinsieme.png","9.png",0,"UP","SP","SP",0,0,9
"822",8766698,"coordination","trial",2282,12,"left",1,"15soloseinsieme.png","1.png",0,"UP","SP","UP",1,NA,14.1361256544503
"823",8766698,"coordination","trial",4184,13,"right",11,"15soloseinsieme.png","11.png",0,"UP","SP","SP",0,0,11
"824",8766698,"coordination","trial",3210.00000000001,14,"right",15,"15soloseinsieme.png","15.png",0,"UP","SP","SP",0,0,15
"825",8766698,"coordination","trial",2653,15,"right",8,"15soloseinsieme.png","8.png",0,"UP","SP","SP",0,0,8
"826",8766698,"lottery","trial",1580,1,"right",1,"1.png","15soloseacaso.png",0,"SP","UP","UP",1,NA,7.5
"827",8766698,"lottery","trial",2019.00000000001,2,"right",8,"15soloseacaso.png","8.png",0,"UP","SP","SP",0,0,8
"828",8766698,"lottery","trial",3751,3,"left",6,"15soloseacaso.png","6.png",0,"UP","SP","UP",1,0,7.5
"829",8766698,"lottery","trial",1580,4,"left",11,"11.png","15soloseacaso.png",0,"SP","UP","SP",0,0,11
"830",8766698,"lottery","trial",2620,5,"right",7,"15soloseacaso.png","7.png",0,"UP","SP","SP",0,1,7
"831",8766698,"lottery","trial",1239,6,"left",9,"9.png","15soloseacaso.png",0,"SP","UP","SP",0,0,9
"832",8766698,"lottery","trial",1317,7,"left",5,"15soloseacaso.png","5.png",0,"UP","SP","UP",1,0,7.5
"833",8766698,"lottery","trial",1346,8,"right",4,"4.png","15soloseacaso.png",0,"SP","UP","UP",1,0,7.5
"834",8766698,"lottery","trial",1623,9,"right",14,"15soloseacaso.png","14.png",0,"UP","SP","SP",0,0,14
"835",8766698,"lottery","trial",1531,10,"right",13,"15soloseacaso.png","13.png",0,"UP","SP","SP",0,0,13
"836",8766698,"lottery","trial",1982,11,"right",12,"15soloseacaso.png","12.png",0,"UP","SP","SP",0,0,12
"837",8766698,"lottery","trial",2372.00000000001,12,"left",3,"15soloseacaso.png","3.png",0,"UP","SP","UP",1,0,7.5
"838",8766698,"lottery","trial",1187,13,"left",15,"15.png","15soloseacaso.png",0,"SP","UP","SP",0,0,15
"839",8766698,"lottery","trial",1251,14,"left",10,"10.png","15soloseacaso.png",0,"SP","UP","SP",0,0,10
"840",8766698,"lottery","trial",1911,15,"right",2,"2.png","15soloseacaso.png",0,"SP","UP","UP",1,0,7.5
"841",8766698,"competition","trial",4306,1,"left",15,"15.png","15solosesoli.png",0,"SP","UP","SP",0,0,15
"842",8766698,"competition","trial",7251,2,"left",1,"1.png","15solosesoli.png",0,"SP","UP","SP",0,NA,1
"843",8766698,"competition","trial",3588,3,"right",7,"7.png","15solosesoli.png",0,"SP","UP","UP",1,1,9.26701570680628
"844",8766698,"competition","trial",2745,4,"right",3,"15solosesoli.png","3.png",0,"UP","SP","SP",0,1,3
"845",8766698,"competition","trial",1556,5,"right",11,"15solosesoli.png","11.png",0,"UP","SP","SP",0,0,11
"846",8766698,"competition","trial",1107,6,"right",9,"15solosesoli.png","9.png",0,"UP","SP","SP",0,0,9
"847",8766698,"competition","trial",1738,7,"left",8,"8.png","15solosesoli.png",0,"SP","UP","SP",0,1,8
"848",8766698,"competition","trial",2928,8,"left",6,"6.png","15solosesoli.png",0,"SP","UP","SP",0,1,6
"849",8766698,"competition","trial",1734.00000000003,9,"right",12,"15solosesoli.png","12.png",0,"UP","SP","SP",0,0,12
"850",8766698,"competition","trial",1602,10,"right",5,"5.png","15solosesoli.png",0,"SP","UP","UP",1,1,7.30366492146597
"851",8766698,"competition","trial",1110,11,"right",13,"15solosesoli.png","13.png",0,"UP","SP","SP",0,0,13
"852",8766698,"competition","trial",3262,12,"right",4,"15solosesoli.png","4.png",0,"UP","SP","SP",0,0,4
"853",8766698,"competition","trial",1288.00000000003,13,"right",10,"15solosesoli.png","10.png",0,"UP","SP","SP",0,0,10
"854",8766698,"competition","trial",1088.00000000003,14,"left",14,"14.png","15solosesoli.png",0,"SP","UP","SP",0,0,14
"855",8766698,"competition","trial",4748,15,"right",2,"2.png","15solosesoli.png",0,"SP","UP","UP",1,1,5.96858638743455
"856",8766700,"coordination","trial",4341.421,1,"left",6,"15soloseinsieme.png","6.png",0,"UP","SP","UP",1,0,12.2513089005236
"857",8766700,"coordination","trial",2041.39099999106,2,"left",4,"15soloseinsieme.png","4.png",0,"UP","SP","UP",1,0,13.979057591623
"858",8766700,"coordination","trial",1707.181,3,"left",11,"11.png","15soloseinsieme.png",0,"SP","UP","SP",0,0,11
"859",8766700,"coordination","trial",3858.53699999106,4,"right",8,"15soloseinsieme.png","8.png",0,"UP","SP","SP",0,1,8
"860",8766700,"coordination","trial",2575.05,5,"right",14,"15soloseinsieme.png","14.png",0,"UP","SP","SP",0,0,14
"861",8766700,"coordination","trial",2008.02199998808,6,"right",9,"15soloseinsieme.png","9.png",0,"UP","SP","SP",0,0,9
"862",8766700,"coordination","trial",2525.19,7,"right",2,"2.png","15soloseinsieme.png",0,"SP","UP","UP",1,0,13.979057591623
