"","sub","game","Screen","rt","trial","Object.Name","sp","left.column","right.column","rt.out","left.response","right.response","answer","response","switch","payoff"
"1",9818103,"coordination","trial",2261.30899999981,1,"left",12,"15soloseinsieme.png","12.png",0,"UP","SP","UP",1,0,7.07547169811321
"2",9818103,"coordination","trial",5017.93800000019,2,"left",14,"15soloseinsieme.png","14.png",0,"UP","SP","UP",1,0,5.23584905660377
"3",9818103,"coordination","trial",1591.42999999991,3,"left",8,"15soloseinsieme.png","8.png",0,"UP","SP","UP",1,0,10.8962264150943
"4",9818103,"coordination","trial",3296.62000000009,4,"right",10,"10.png","15soloseinsieme.png",0,"SP","UP","UP",1,0,7.78301886792453
"5",9818103,"coordination","trial",1733.808,5,"left",5,"15soloseinsieme.png","5.png",0,"UP","SP","UP",1,0,13.8679245283019
"6",9818103,"coordination","trial",1786.31699999981,6,"right",13,"13.png","15soloseinsieme.png",0,"SP","UP","UP",1,0,5.94339622641509
"7",9818103,"coordination","trial",1621.27399999991,7,"right",7,"7.png","15soloseinsieme.png",0,"SP","UP","UP",1,0,11.6037735849057
"8",9818103,"coordination","trial",1964.65899999991,8,"right",11,"11.png","15soloseinsieme.png",0,"SP","UP","UP",1,0,7.21698113207547
"9",9818103,"coordination","trial",1879.81900000009,9,"right",3,"3.png","15soloseinsieme.png",0,"SP","UP","UP",1,0,14.0094339622642
"10",9818103,"coordination","trial",3349.522,10,"left",15,"15.png","15soloseinsieme.png",0,"SP","UP","SP",0,1,15
"11",9818103,"coordination","trial",1751.731,11,"left",9,"15soloseinsieme.png","9.png",0,"UP","SP","UP",1,0,10.0471698113208
"12",9818103,"coordination","trial",1411.73,12,"right",2,"2.png","15soloseinsieme.png",0,"SP","UP","UP",1,0,14.4339622641509
"13",9818103,"coordination","trial",1402.94599999991,13,"left",4,"15soloseinsieme.png","4.png",0,"UP","SP","UP",1,0,13.8679245283019
"14",9818103,"coordination","trial",1674.94000000018,14,"left",1,"15soloseinsieme.png","1.png",0,"UP","SP","UP",1,NA,14.4339622641509
"15",9818103,"coordination","trial",1515.34899999981,15,"left",6,"15soloseinsieme.png","6.png",0,"UP","SP","UP",1,0,13.0188679245283
"16",9818103,"lottery","trial",2538.9789999999,1,"right",9,"15soloseacaso.png","9.png",0,"UP","SP","SP",0,1,9
"17",9818103,"lottery","trial",2030.986,2,"right",12,"15soloseacaso.png","12.png",0,"UP","SP","SP",0,0,12
"18",9818103,"lottery","trial",1176.41599999981,3,"right",6,"6.png","15soloseacaso.png",0,"SP","UP","UP",1,0,7.5
"19",9818103,"lottery","trial",2878.36299999991,4,"right",4,"4.png","15soloseacaso.png",0,"SP","UP","UP",1,0,7.5
"20",9818103,"lottery","trial",1484.758,5,"right",11,"15soloseacaso.png","11.png",0,"UP","SP","SP",0,0,11
"21",9818103,"lottery","trial",1486.65600000019,6,"left",7,"15soloseacaso.png","7.png",0,"UP","SP","UP",1,0,7.5
"22",9818103,"lottery","trial",1299.87899999999,7,"right",13,"15soloseacaso.png","13.png",0,"UP","SP","SP",0,0,13
"23",9818103,"lottery","trial",1116.052,8,"left",1,"15soloseacaso.png","1.png",0,"UP","SP","UP",1,NA,7.5
"24",9818103,"lottery","trial",1199.702,9,"left",3,"15soloseacaso.png","3.png",0,"UP","SP","UP",1,0,7.5
"25",9818103,"lottery","trial",1626.66000000019,10,"left",10,"10.png","15soloseacaso.png",0,"SP","UP","SP",0,0,10
"26",9818103,"lottery","trial",1276.16099999991,11,"left",14,"14.png","15soloseacaso.png",0,"SP","UP","SP",0,0,14
"27",9818103,"lottery","trial",1790.72500000009,12,"left",15,"15.png","15soloseacaso.png",0,"SP","UP","SP",0,0,15
"28",9818103,"lottery","trial",1770.80900000018,13,"right",5,"5.png","15soloseacaso.png",0,"SP","UP","UP",1,0,7.5
"29",9818103,"lottery","trial",1062.72299999981,14,"right",2,"2.png","15soloseacaso.png",0,"SP","UP","UP",1,0,7.5
"30",9818103,"lottery","trial",1718.6960000001,15,"left",8,"15soloseacaso.png","8.png",0,"UP","SP","UP",1,0,7.5
"31",9818103,"competition","trial",3710.7420000001,1,"left",11,"11.png","15solosesoli.png",0,"SP","UP","SP",0,0,11
"32",9818103,"competition","trial",4403.25200000009,2,"left",7,"7.png","15solosesoli.png",0,"SP","UP","SP",0,0,7
"33",9818103,"competition","trial",7804.92999999982,3,"right",3,"3.png","15solosesoli.png",0,"SP","UP","UP",1,0,6.36792452830189
"34",9818103,"competition","trial",6370.0689999999,4,"right",4,"4.png","15solosesoli.png",0,"SP","UP","UP",1,0,7.21698113207547
"35",9818103,"competition","trial",1195.10200000009,5,"left",12,"12.png","15solosesoli.png",0,"SP","UP","SP",0,0,12
"36",9818103,"competition","trial",1665.29300000009,6,"right",13,"15solosesoli.png","13.png",0,"UP","SP","SP",0,0,13
"37",9818103,"competition","trial",1102.33600000018,7,"right",9,"15solosesoli.png","9.png",0,"UP","SP","SP",0,0,9
"38",9818103,"competition","trial",2004.61900000018,8,"left",5,"15solosesoli.png","5.png",0,"UP","SP","UP",1,0,8.63207547169811
"39",9818103,"competition","trial",1821.0449999999,9,"left",1,"15solosesoli.png","1.png",0,"UP","SP","UP",1,NA,6.36792452830189
"40",9818103,"competition","trial",1595.23099999983,10,"left",8,"8.png","15solosesoli.png",0,"SP","UP","SP",0,0,8
"41",9818103,"competition","trial",2716.30600000001,11,"left",6,"6.png","15solosesoli.png",0,"SP","UP","SP",0,1,6
"42",9818103,"competition","trial",939.241000000096,12,"left",10,"10.png","15solosesoli.png",0,"SP","UP","SP",0,0,10
"43",9818103,"competition","trial",1101.54800000018,13,"left",2,"15solosesoli.png","2.png",0,"UP","SP","UP",1,0,6.36792452830189
"44",9818103,"competition","trial",1453.65799999982,14,"right",14,"15solosesoli.png","14.png",0,"UP","SP","SP",0,0,14
"45",9818103,"competition","trial",1419.81299999999,15,"left",15,"15.png","15solosesoli.png",0,"SP","UP","SP",0,0,15
"46",9818104,"competition","trial",9201,1,"left",14,"14.png","15solosesoli.png",0,"SP","UP","SP",0,1,14
"47",9818104,"competition","trial",4336,2,"left",6,"6.png","15solosesoli.png",0,"SP","UP","SP",0,0,6
"48",9818104,"competition","trial",19596,3,"left",3,"3.png","15solosesoli.png",1,"SP","UP","SP",0,1,3
"49",9818104,"competition","trial",4201,4,"left",13,"15solosesoli.png","13.png",0,"UP","SP","UP",1,0,11.4622641509434
"50",9818104,"competition","trial",3002,5,"left",15,"15.png","15solosesoli.png",0,"SP","UP","SP",0,0,15
"51",9818104,"competition","trial",8225.00000000001,6,"left",12,"15solosesoli.png","12.png",0,"UP","SP","UP",1,1,11.1792452830189
"52",9818104,"competition","trial",3055,7,"left",11,"11.png","15solosesoli.png",0,"SP","UP","SP",0,0,11
"53",9818104,"competition","trial",15470,8,"left",1,"15solosesoli.png","1.png",1,"UP","SP","UP",1,NA,6.36792452830189
"54",9818104,"competition","trial",2063,9,"left",9,"9.png","15solosesoli.png",0,"SP","UP","SP",0,0,9
"55",9818104,"competition","trial",2731,10,"right",7,"15solosesoli.png","7.png",0,"UP","SP","SP",0,0,7
"56",9818104,"competition","trial",3197,11,"right",8,"15solosesoli.png","8.png",0,"UP","SP","SP",0,0,8
"57",9818104,"competition","trial",2764,12,"right",10,"15solosesoli.png","10.png",0,"UP","SP","SP",0,0,10
"58",9818104,"competition","trial",13701,13,"right",5,"15solosesoli.png","5.png",1,"UP","SP","SP",0,0,5
"59",9818104,"competition","trial",4198.00000000001,14,"right",2,"2.png","15solosesoli.png",0,"SP","UP","UP",1,0,6.36792452830189
"60",9818104,"competition","trial",2290,15,"left",4,"4.png","15solosesoli.png",0,"SP","UP","SP",0,0,4
"61",9818104,"coordination","trial",2997,1,"right",14,"14.png","15soloseinsieme.png",0,"SP","UP","UP",1,0,5.23584905660377
"62",9818104,"coordination","trial",4857,2,"left",9,"15soloseinsieme.png","9.png",0,"UP","SP","UP",1,0,10.0471698113208
"63",9818104,"coordination","trial",1833,3,"right",7,"7.png","15soloseinsieme.png",0,"SP","UP","UP",1,0,11.6037735849057
"64",9818104,"coordination","trial",3890,4,"right",6,"6.png","15soloseinsieme.png",0,"SP","UP","UP",1,0,13.0188679245283
"65",9818104,"coordination","trial",897,5,"left",8,"15soloseinsieme.png","8.png",0,"UP","SP","UP",1,0,10.8962264150943
"66",9818104,"coordination","trial",2176,6,"right",5,"5.png","15soloseinsieme.png",0,"SP","UP","UP",1,0,13.8679245283019
"67",9818104,"coordination","trial",2385,7,"right",15,"15.png","15soloseinsieme.png",0,"SP","UP","UP",1,0,3.82075471698113
"68",9818104,"coordination","trial",763,8,"right",10,"10.png","15soloseinsieme.png",0,"SP","UP","UP",1,0,7.78301886792453
"69",9818104,"coordination","trial",1554,9,"right",3,"3.png","15soloseinsieme.png",0,"SP","UP","UP",1,0,14.0094339622642
"70",9818104,"coordination","trial",2213,10,"left",2,"15soloseinsieme.png","2.png",0,"UP","SP","UP",1,0,14.4339622641509
"71",9818104,"coordination","trial",762,11,"left",13,"15soloseinsieme.png","13.png",0,"UP","SP","UP",1,0,5.94339622641509
"72",9818104,"coordination","trial",795.000000000029,12,"left",1,"15soloseinsieme.png","1.png",0,"UP","SP","UP",1,NA,14.4339622641509
"73",9818104,"coordination","trial",1730.00000000003,13,"right",12,"12.png","15soloseinsieme.png",0,"SP","UP","UP",1,0,7.07547169811321
"74",9818104,"coordination","trial",3098,14,"left",11,"15soloseinsieme.png","11.png",0,"UP","SP","UP",1,0,7.21698113207547
"75",9818104,"coordination","trial",932,15,"right",4,"4.png","15soloseinsieme.png",0,"SP","UP","UP",1,0,13.8679245283019
"76",9818104,"lottery","trial",8617,1,"left",6,"6.png","15soloseacaso.png",0,"SP","UP","SP",0,1,6
"77",9818104,"lottery","trial",1402,2,"right",1,"1.png","15soloseacaso.png",0,"SP","UP","UP",1,NA,7.5
"78",9818104,"lottery","trial",3901,3,"left",3,"15soloseacaso.png","3.png",0,"UP","SP","UP",1,0,7.5
"79",9818104,"lottery","trial",1123,4,"left",10,"10.png","15soloseacaso.png",0,"SP","UP","SP",0,0,10
"80",9818104,"lottery","trial",1100,5,"left",8,"8.png","15soloseacaso.png",0,"SP","UP","SP",0,1,8
"81",9818104,"lottery","trial",2355,6,"left",12,"12.png","15soloseacaso.png",0,"SP","UP","SP",0,0,12
"82",9818104,"lottery","trial",2467,7,"right",13,"15soloseacaso.png","13.png",0,"UP","SP","SP",0,0,13
"83",9818104,"lottery","trial",2925,8,"left",11,"11.png","15soloseacaso.png",0,"SP","UP","SP",0,0,11
"84",9818104,"lottery","trial",1800,9,"right",15,"15soloseacaso.png","15.png",0,"UP","SP","SP",0,0,15
"85",9818104,"lottery","trial",5399,10,"right",7,"7.png","15soloseacaso.png",0,"SP","UP","UP",1,1,7.5
"86",9818104,"lottery","trial",1334,11,"right",5,"5.png","15soloseacaso.png",0,"SP","UP","UP",1,0,7.5
"87",9818104,"lottery","trial",1113.00000000003,12,"right",9,"15soloseacaso.png","9.png",0,"UP","SP","SP",0,0,9
"88",9818104,"lottery","trial",1521,13,"right",4,"4.png","15soloseacaso.png",0,"SP","UP","UP",1,0,7.5
"89",9818104,"lottery","trial",2614,14,"right",2,"2.png","15soloseacaso.png",0,"SP","UP","UP",1,0,7.5
"90",9818104,"lottery","trial",1314,15,"left",14,"14.png","15soloseacaso.png",0,"SP","UP","SP",0,0,14
"91",9818105,"lottery","trial",2684,1,"right",10,"15soloseacaso.png","10.png",0,"UP","SP","SP",0,0,10
"92",9818105,"lottery","trial",2117,2,"left",15,"15.png","15soloseacaso.png",0,"SP","UP","SP",0,0,15
"93",9818105,"lottery","trial",16258,3,"right",8,"8.png","15soloseacaso.png",1,"SP","UP","UP",1,1,7.5
"94",9818105,"lottery","trial",3350,4,"right",6,"15soloseacaso.png","6.png",0,"UP","SP","SP",0,1,6
"95",9818105,"lottery","trial",1151,5,"right",13,"15soloseacaso.png","13.png",0,"UP","SP","SP",0,0,13
"96",9818105,"lottery","trial",1833,6,"left",12,"12.png","15soloseacaso.png",0,"SP","UP","SP",0,0,12
"97",9818105,"lottery","trial",2169,7,"right",1,"1.png","15soloseacaso.png",0,"SP","UP","UP",1,NA,7.5
"98",9818105,"lottery","trial",5503,8,"left",7,"7.png","15soloseacaso.png",0,"SP","UP","SP",0,0,7
"99",9818105,"lottery","trial",1201,9,"right",2,"2.png","15soloseacaso.png",0,"SP","UP","UP",1,0,7.5
"100",9818105,"lottery","trial",1634,10,"left",14,"14.png","15soloseacaso.png",0,"SP","UP","SP",0,0,14
"101",9818105,"lottery","trial",2135,11,"left",3,"15soloseacaso.png","3.png",0,"UP","SP","UP",1,0,7.5
"102",9818105,"lottery","trial",1299,12,"left",11,"11.png","15soloseacaso.png",0,"SP","UP","SP",0,0,11
"103",9818105,"lottery","trial",2200,13,"left",5,"15soloseacaso.png","5.png",0,"UP","SP","UP",1,1,7.5
"104",9818105,"lottery","trial",2283,14,"right",4,"15soloseacaso.png","4.png",0,"UP","SP","SP",0,1,4
"105",9818105,"lottery","trial",1334,15,"right",9,"15soloseacaso.png","9.png",0,"UP","SP","SP",0,1,9
"106",9818105,"coordination","trial",5735,1,"right",7,"7.png","15soloseinsieme.png",0,"SP","UP","UP",1,1,11.6037735849057
"107",9818105,"coordination","trial",6036,2,"left",9,"15soloseinsieme.png","9.png",0,"UP","SP","UP",1,1,10.0471698113208
"108",9818105,"coordination","trial",2252,3,"left",6,"6.png","15soloseinsieme.png",0,"SP","UP","SP",0,1,6
"109",9818105,"coordination","trial",3200,4,"right",12,"12.png","15soloseinsieme.png",0,"SP","UP","UP",1,1,7.07547169811321
"110",9818105,"coordination","trial",4100,5,"right",5,"5.png","15soloseinsieme.png",0,"SP","UP","UP",1,0,13.8679245283019
"111",9818105,"coordination","trial",2534,6,"right",15,"15soloseinsieme.png","15.png",0,"UP","SP","SP",0,0,15
"112",9818105,"coordination","trial",3568,7,"right",2,"2.png","15soloseinsieme.png",0,"SP","UP","UP",1,0,14.4339622641509
"113",9818105,"coordination","trial",2383,8,"right",13,"15soloseinsieme.png","13.png",0,"UP","SP","SP",0,1,13
"114",9818105,"coordination","trial",6468,9,"right",10,"15soloseinsieme.png","10.png",0,"UP","SP","SP",0,1,10
"115",9818105,"coordination","trial",2085,10,"left",1,"15soloseinsieme.png","1.png",0,"UP","SP","UP",1,NA,14.4339622641509
"116",9818105,"coordination","trial",2535,11,"right",3,"3.png","15soloseinsieme.png",0,"SP","UP","UP",1,0,14.0094339622642
"117",9818105,"coordination","trial",8038,12,"left",4,"15soloseinsieme.png","4.png",0,"UP","SP","UP",1,0,13.8679245283019
"118",9818105,"coordination","trial",2282,13,"left",14,"14.png","15soloseinsieme.png",0,"SP","UP","SP",0,0,14
"119",9818105,"coordination","trial",2366,14,"right",11,"15soloseinsieme.png","11.png",0,"UP","SP","SP",0,0,11
"120",9818105,"coordination","trial",2801,15,"right",8,"15soloseinsieme.png","8.png",0,"UP","SP","SP",0,1,8
"121",9818105,"competition","trial",4203,1,"right",4,"4.png","15solosesoli.png",0,"SP","UP","UP",1,0,7.21698113207547
"122",9818105,"competition","trial",2084,2,"right",8,"15solosesoli.png","8.png",0,"UP","SP","SP",0,0,8
"123",9818105,"competition","trial",1885,3,"left",13,"13.png","15solosesoli.png",0,"SP","UP","SP",0,0,13
"124",9818105,"competition","trial",1418,4,"left",10,"10.png","15solosesoli.png",0,"SP","UP","SP",0,0,10
"125",9818105,"competition","trial",2018,5,"right",5,"5.png","15solosesoli.png",0,"SP","UP","UP",1,0,8.63207547169811
"126",9818105,"competition","trial",1883,6,"right",6,"15solosesoli.png","6.png",0,"UP","SP","SP",0,1,6
"127",9818105,"competition","trial",2368,7,"right",12,"15solosesoli.png","12.png",0,"UP","SP","SP",0,0,12
"128",9818105,"competition","trial",2218,8,"left",14,"14.png","15solosesoli.png",0,"SP","UP","SP",0,0,14
"129",9818105,"competition","trial",2032,9,"left",11,"11.png","15solosesoli.png",0,"SP","UP","SP",0,0,11
"130",9818105,"competition","trial",8986,10,"right",9,"15solosesoli.png","9.png",0,"UP","SP","SP",0,0,9
"131",9818105,"competition","trial",5452,11,"left",2,"15solosesoli.png","2.png",0,"UP","SP","UP",1,0,6.36792452830189
"132",9818105,"competition","trial",1650,12,"left",3,"15solosesoli.png","3.png",0,"UP","SP","UP",1,0,6.36792452830189
"133",9818105,"competition","trial",1432,13,"right",1,"1.png","15solosesoli.png",0,"SP","UP","UP",1,NA,6.36792452830189
"134",9818105,"competition","trial",15574,14,"left",7,"7.png","15solosesoli.png",1,"SP","UP","SP",0,0,7
"135",9818105,"competition","trial",1382,15,"right",15,"15solosesoli.png","15.png",0,"UP","SP","SP",0,0,15
"136",9818106,"coordination","trial",5007.05,1,"right",8,"8.png","15soloseinsieme.png",0,"SP","UP","UP",1,0,10.8962264150943
"137",9818106,"coordination","trial",6490.36400000596,2,"left",11,"15soloseinsieme.png","11.png",0,"UP","SP","UP",1,0,7.21698113207547
"138",9818106,"coordination","trial",3999.115,3,"left",5,"15soloseinsieme.png","5.png",0,"UP","SP","UP",1,0,13.8679245283019
"139",9818106,"coordination","trial",2683.333,4,"left",14,"15soloseinsieme.png","14.png",0,"UP","SP","UP",1,0,5.23584905660377
"140",9818106,"coordination","trial",1714.18200000298,5,"left",7,"15soloseinsieme.png","7.png",0,"UP","SP","UP",1,0,11.6037735849057
"141",9818106,"coordination","trial",1997.93600000298,6,"left",9,"15soloseinsieme.png","9.png",0,"UP","SP","UP",1,0,10.0471698113208
"142",9818106,"coordination","trial",2083.333,7,"left",13,"15soloseinsieme.png","13.png",0,"UP","SP","UP",1,0,5.94339622641509
"143",9818106,"coordination","trial",2273.84900000596,8,"right",6,"6.png","15soloseinsieme.png",0,"SP","UP","UP",1,0,13.0188679245283
"144",9818106,"coordination","trial",1923.57099999702,9,"left",1,"15soloseinsieme.png","1.png",0,"UP","SP","UP",1,NA,14.4339622641509
"145",9818106,"coordination","trial",1574.98899999999,10,"left",3,"15soloseinsieme.png","3.png",0,"UP","SP","UP",1,0,14.0094339622642
"146",9818106,"coordination","trial",2348.05700000298,11,"left",2,"15soloseinsieme.png","2.png",0,"UP","SP","UP",1,0,14.4339622641509
"147",9818106,"coordination","trial",1883.34,12,"left",12,"15soloseinsieme.png","12.png",0,"UP","SP","UP",1,0,7.07547169811321
"148",9818106,"coordination","trial",1693.97000000596,13,"left",15,"15soloseinsieme.png","15.png",0,"UP","SP","UP",1,0,3.82075471698113
"149",9818106,"coordination","trial",1391.26600000596,14,"left",4,"15soloseinsieme.png","4.png",0,"UP","SP","UP",1,0,13.8679245283019
"150",9818106,"coordination","trial",1405.052,15,"right",10,"10.png","15soloseinsieme.png",0,"SP","UP","UP",1,0,7.78301886792453
"151",9818106,"lottery","trial",10358.374,1,"right",7,"7.png","15soloseacaso.png",0,"SP","UP","UP",1,0,7.5
"152",9818106,"lottery","trial",3358.345,2,"left",15,"15.png","15soloseacaso.png",0,"SP","UP","SP",0,0,15
"153",9818106,"lottery","trial",4666.68400000001,3,"right",5,"5.png","15soloseacaso.png",0,"SP","UP","UP",1,0,7.5
"154",9818106,"lottery","trial",2408.34899999999,4,"left",3,"15soloseacaso.png","3.png",0,"UP","SP","UP",1,0,7.5
"155",9818106,"lottery","trial",1650.00600000001,5,"right",9,"15soloseacaso.png","9.png",0,"UP","SP","SP",0,0,9
"156",9818106,"lottery","trial",2045.01499999702,6,"left",2,"15soloseacaso.png","2.png",0,"UP","SP","UP",1,0,7.5
"157",9818106,"lottery","trial",2191.674,7,"left",11,"11.png","15soloseacaso.png",0,"SP","UP","SP",0,0,11
"158",9818106,"lottery","trial",1571.198,8,"right",13,"15soloseacaso.png","13.png",0,"UP","SP","SP",0,0,13
"159",9818106,"lottery","trial",1283.342,9,"right",12,"15soloseacaso.png","12.png",0,"UP","SP","SP",0,0,12
"160",9818106,"lottery","trial",1923.81199999702,10,"left",14,"14.png","15soloseacaso.png",0,"SP","UP","SP",0,0,14
"161",9818106,"lottery","trial",1585.91700000894,11,"right",10,"15soloseacaso.png","10.png",0,"UP","SP","SP",0,0,10
"162",9818106,"lottery","trial",4933.348,12,"left",6,"15soloseacaso.png","6.png",0,"UP","SP","UP",1,0,7.5
"163",9818106,"lottery","trial",1010.76599999702,13,"right",4,"4.png","15soloseacaso.png",0,"SP","UP","UP",1,0,7.5
"164",9818106,"lottery","trial",1272.03500000596,14,"left",8,"8.png","15soloseacaso.png",0,"SP","UP","SP",0,1,8
"165",9818106,"lottery","trial",1265.19499999702,15,"left",1,"15soloseacaso.png","1.png",0,"UP","SP","UP",1,NA,7.5
"166",9818106,"competition","trial",11524.514,1,"right",2,"15solosesoli.png","2.png",0,"UP","SP","SP",0,0,2
"167",9818106,"competition","trial",3130.60199999702,2,"left",3,"15solosesoli.png","3.png",0,"UP","SP","UP",1,1,6.36792452830189
"168",9818106,"competition","trial",5685.39400000894,3,"right",5,"5.png","15solosesoli.png",0,"SP","UP","UP",1,0,8.63207547169811
"169",9818106,"competition","trial",1974.62500000297,4,"right",11,"11.png","15solosesoli.png",0,"SP","UP","UP",1,1,11.1792452830189
"170",9818106,"competition","trial",2864.05699999703,5,"right",6,"15solosesoli.png","6.png",0,"UP","SP","SP",0,1,6
"171",9818106,"competition","trial",5100.019,6,"right",15,"15solosesoli.png","15.png",0,"UP","SP","SP",0,0,15
"172",9818106,"competition","trial",15180.623999997,7,"left",12,"15solosesoli.png","12.png",1,"UP","SP","UP",1,0,11.1792452830189
"173",9818106,"competition","trial",7631.86600000298,8,"left",10,"10.png","15solosesoli.png",0,"SP","UP","SP",0,0,10
"174",9818106,"competition","trial",814.133999999991,9,"right",8,"15solosesoli.png","8.png",0,"UP","SP","SP",0,1,8
"175",9818106,"competition","trial",12206.696000006,10,"left",14,"14.png","15solosesoli.png",0,"SP","UP","SP",0,0,14
"176",9818106,"competition","trial",13237.948000003,11,"left",1,"1.png","15solosesoli.png",1,"SP","UP","SP",0,NA,1
"177",9818106,"competition","trial",12908.38,12,"left",4,"15solosesoli.png","4.png",1,"UP","SP","UP",1,0,7.21698113207547
"178",9818106,"competition","trial",2432.81299999999,13,"right",7,"7.png","15solosesoli.png",0,"SP","UP","UP",1,1,9.90566037735849
"179",9818106,"competition","trial",2925.01299999998,14,"left",9,"9.png","15solosesoli.png",0,"SP","UP","SP",0,0,9
"180",9818106,"competition","trial",987.428999997035,15,"left",13,"13.png","15solosesoli.png",0,"SP","UP","SP",0,1,13
"181",9818110,"competition","trial",16106.708,1,"left",9,"15solosesoli.png","9.png",1,"UP","SP","UP",1,0,11.6037735849057
"182",9818110,"competition","trial",7841.73199997616,2,"right",15,"15solosesoli.png","15.png",0,"UP","SP","SP",0,1,15
"183",9818110,"competition","trial",13906.841,3,"left",7,"7.png","15solosesoli.png",1,"SP","UP","SP",0,1,7
"184",9818110,"competition","trial",3659.937,4,"right",6,"6.png","15solosesoli.png",0,"SP","UP","UP",1,1,8.49056603773585
"185",9818110,"competition","trial",5697.23800000002,5,"left",10,"10.png","15solosesoli.png",0,"SP","UP","SP",0,1,10
"186",9818110,"competition","trial",6242.348,6,"left",8,"15solosesoli.png","8.png",0,"UP","SP","UP",1,1,10.188679245283
"187",9818110,"competition","trial",6952.07399997616,7,"right",11,"15solosesoli.png","11.png",0,"UP","SP","SP",0,0,11
"188",9818110,"competition","trial",18957.5099999642,8,"right",13,"13.png","15solosesoli.png",1,"SP","UP","UP",1,1,11.4622641509434
"189",9818110,"competition","trial",20885.892,9,"left",14,"15solosesoli.png","14.png",1,"UP","SP","UP",1,0,11.6037735849057
"190",9818110,"competition","trial",4981.29399999999,10,"right",1,"1.png","15solosesoli.png",0,"SP","UP","UP",1,NA,6.36792452830189
"191",9818110,"competition","trial",6584.86499995232,11,"left",12,"12.png","15solosesoli.png",0,"SP","UP","SP",0,0,12
"192",9818110,"competition","trial",4839.78299996423,12,"right",3,"15solosesoli.png","3.png",0,"UP","SP","SP",0,1,3
"193",9818110,"competition","trial",2015.16800000001,13,"left",2,"15solosesoli.png","2.png",0,"UP","SP","UP",1,0,6.36792452830189
"194",9818110,"competition","trial",17171.454,14,"left",5,"5.png","15solosesoli.png",1,"SP","UP","SP",0,1,5
"195",9818110,"competition","trial",1678.64799996425,15,"left",4,"15solosesoli.png","4.png",0,"UP","SP","UP",1,1,7.21698113207547
"196",9818110,"lottery","trial",3795.06899995232,1,"right",12,"15soloseacaso.png","12.png",0,"UP","SP","SP",0,0,12
"197",9818110,"lottery","trial",1467.48499996425,2,"right",6,"6.png","15soloseacaso.png",0,"SP","UP","UP",1,0,7.5
"198",9818110,"lottery","trial",2675.61900000001,3,"right",5,"5.png","15soloseacaso.png",0,"SP","UP","UP",1,0,7.5
"199",9818110,"lottery","trial",1548.27099996424,4,"left",2,"15soloseacaso.png","2.png",0,"UP","SP","UP",1,0,7.5
"200",9818110,"lottery","trial",1789.56999995231,5,"right",1,"1.png","15soloseacaso.png",0,"SP","UP","UP",1,NA,7.5
"201",9818110,"lottery","trial",1325.78599995232,6,"right",10,"15soloseacaso.png","10.png",0,"UP","SP","SP",0,1,10
"202",9818110,"lottery","trial",1715.33400000003,7,"left",4,"15soloseacaso.png","4.png",0,"UP","SP","UP",1,0,7.5
"203",9818110,"lottery","trial",3663.89099999997,8,"left",8,"15soloseacaso.png","8.png",0,"UP","SP","UP",1,0,7.5
"204",9818110,"lottery","trial",1513.84099995231,9,"left",11,"11.png","15soloseacaso.png",0,"SP","UP","SP",0,0,11
"205",9818110,"lottery","trial",2307.18199998807,10,"left",15,"15.png","15soloseacaso.png",0,"SP","UP","SP",0,0,15
"206",9818110,"lottery","trial",1382.94,11,"left",14,"14.png","15soloseacaso.png",0,"SP","UP","SP",0,0,14
"207",9818110,"lottery","trial",1622.39799995231,12,"right",7,"7.png","15soloseacaso.png",0,"SP","UP","UP",1,0,7.5
"208",9818110,"lottery","trial",1722.31699997614,13,"right",9,"9.png","15soloseacaso.png",0,"SP","UP","UP",1,0,7.5
"209",9818110,"lottery","trial",1742.69199997614,14,"left",3,"15soloseacaso.png","3.png",0,"UP","SP","UP",1,0,7.5
"210",9818110,"lottery","trial",2819.58099996424,15,"left",13,"13.png","15soloseacaso.png",0,"SP","UP","SP",0,0,13
"211",9818110,"coordination","trial",3559.47499997617,1,"left",14,"15soloseinsieme.png","14.png",0,"UP","SP","UP",1,1,5.23584905660377
"212",9818110,"coordination","trial",8741.86699997616,2,"left",8,"15soloseinsieme.png","8.png",0,"UP","SP","UP",1,0,10.8962264150943
"213",9818110,"coordination","trial",1266.22200000004,3,"left",6,"15soloseinsieme.png","6.png",0,"UP","SP","UP",1,0,13.0188679245283
"214",9818110,"coordination","trial",1149.41399996425,4,"left",3,"15soloseinsieme.png","3.png",0,"UP","SP","UP",1,0,14.0094339622642
"215",9818110,"coordination","trial",2241.61900000001,5,"right",10,"15soloseinsieme.png","10.png",0,"UP","SP","SP",0,1,10
"216",9818110,"coordination","trial",3031.87100000004,6,"left",4,"15soloseinsieme.png","4.png",0,"UP","SP","UP",1,0,13.8679245283019
"217",9818110,"coordination","trial",9015.85000000001,7,"left",2,"15soloseinsieme.png","2.png",0,"UP","SP","UP",1,0,14.4339622641509
"218",9818110,"coordination","trial",2814.158,8,"left",12,"12.png","15soloseinsieme.png",0,"SP","UP","SP",0,0,12
"219",9818110,"coordination","trial",1311.66099998809,9,"left",7,"15soloseinsieme.png","7.png",0,"UP","SP","UP",1,0,11.6037735849057
"220",9818110,"coordination","trial",3306.52799995232,10,"right",1,"1.png","15soloseinsieme.png",0,"SP","UP","UP",1,NA,14.4339622641509
"221",9818110,"coordination","trial",6459.13799995231,11,"left",13,"13.png","15soloseinsieme.png",0,"SP","UP","SP",0,0,13
"222",9818110,"coordination","trial",10659.0380000001,12,"left",9,"15soloseinsieme.png","9.png",0,"UP","SP","UP",1,0,10.0471698113208
"223",9818110,"coordination","trial",3597.41799999995,13,"left",15,"15.png","15soloseinsieme.png",0,"SP","UP","SP",0,1,15
"224",9818110,"coordination","trial",1270.89799995231,14,"left",5,"15soloseinsieme.png","5.png",0,"UP","SP","UP",1,0,13.8679245283019
"225",9818110,"coordination","trial",2142.17699996423,15,"right",11,"15soloseinsieme.png","11.png",0,"UP","SP","SP",0,0,11
"226",9818119,"competition","trial",23675.928,1,"right",3,"15solosesoli.png","3.png",1,"UP","SP","SP",0,1,3
"227",9818119,"competition","trial",2999.23200004768,2,"right",15,"15solosesoli.png","15.png",0,"UP","SP","SP",0,0,15
"228",9818119,"competition","trial",2294.83299997616,3,"left",12,"12.png","15solosesoli.png",0,"SP","UP","SP",0,0,12
"229",9818119,"competition","trial",1512.50599997616,4,"right",13,"15solosesoli.png","13.png",0,"UP","SP","SP",0,0,13
"230",9818119,"competition","trial",7778.75200002384,5,"left",2,"15solosesoli.png","2.png",0,"UP","SP","UP",1,0,6.36792452830189
"231",9818119,"competition","trial",2130.81100002384,6,"right",8,"15solosesoli.png","8.png",0,"UP","SP","SP",0,0,8
"232",9818119,"competition","trial",1344.77699997615,7,"left",1,"15solosesoli.png","1.png",0,"UP","SP","UP",1,NA,6.36792452830189
"233",9818119,"competition","trial",3911.67900002384,8,"left",6,"6.png","15solosesoli.png",0,"SP","UP","SP",0,0,6
"234",9818119,"competition","trial",1546.06999997616,9,"right",4,"4.png","15solosesoli.png",0,"SP","UP","UP",1,1,7.21698113207547
"235",9818119,"competition","trial",1294.92299995232,10,"left",14,"14.png","15solosesoli.png",0,"SP","UP","SP",0,0,14
"236",9818119,"competition","trial",1261.66700002384,11,"left",9,"9.png","15solosesoli.png",0,"SP","UP","SP",0,0,9
"237",9818119,"competition","trial",1661.36999995232,12,"left",10,"10.png","15solosesoli.png",0,"SP","UP","SP",0,0,10
"238",9818119,"competition","trial",1560.94499997616,13,"left",7,"7.png","15solosesoli.png",0,"SP","UP","SP",0,0,7
"239",9818119,"competition","trial",4711.47899995232,14,"left",5,"5.png","15solosesoli.png",0,"SP","UP","SP",0,1,5
"240",9818119,"competition","trial",1193.60400004768,15,"right",11,"15solosesoli.png","11.png",0,"UP","SP","SP",0,0,11
"241",9818119,"lottery","trial",1794.65299997616,1,"right",12,"15soloseacaso.png","12.png",0,"UP","SP","SP",0,0,12
"242",9818119,"lottery","trial",8827.978,2,"right",5,"15soloseacaso.png","5.png",0,"UP","SP","SP",0,1,5
"243",9818119,"lottery","trial",1228.87699999999,3,"left",3,"15soloseacaso.png","3.png",0,"UP","SP","UP",1,0,7.5
"244",9818119,"lottery","trial",2644.30399995232,4,"left",4,"15soloseacaso.png","4.png",0,"UP","SP","UP",1,0,7.5
"245",9818119,"lottery","trial",1310.63900002385,5,"left",8,"8.png","15soloseacaso.png",0,"SP","UP","SP",0,0,8
"246",9818119,"lottery","trial",1244.666,6,"right",1,"1.png","15soloseacaso.png",0,"SP","UP","UP",1,NA,7.5
"247",9818119,"lottery","trial",1262.808,7,"right",10,"15soloseacaso.png","10.png",0,"UP","SP","SP",0,0,10
"248",9818119,"lottery","trial",1079.11699997616,8,"right",11,"15soloseacaso.png","11.png",0,"UP","SP","SP",0,0,11
"249",9818119,"lottery","trial",1027.609,9,"right",6,"15soloseacaso.png","6.png",0,"UP","SP","SP",0,0,6
"250",9818119,"lottery","trial",960.746999976152,10,"right",14,"15soloseacaso.png","14.png",0,"UP","SP","SP",0,0,14
"251",9818119,"lottery","trial",1296.55000004769,11,"right",2,"2.png","15soloseacaso.png",0,"SP","UP","UP",1,0,7.5
"252",9818119,"lottery","trial",1144.046,12,"right",13,"15soloseacaso.png","13.png",0,"UP","SP","SP",0,0,13
"253",9818119,"lottery","trial",1012.81599999999,13,"right",9,"15soloseacaso.png","9.png",0,"UP","SP","SP",0,0,9
"254",9818119,"lottery","trial",2247.70699999999,14,"left",15,"15.png","15soloseacaso.png",0,"SP","UP","SP",0,0,15
"255",9818119,"lottery","trial",993.991999976162,15,"left",7,"7.png","15soloseacaso.png",0,"SP","UP","SP",0,0,7
"256",9818119,"coordination","trial",5028.50199997617,1,"left",15,"15.png","15soloseinsieme.png",0,"SP","UP","SP",0,0,15
"257",9818119,"coordination","trial",6978.12400004768,2,"left",7,"15soloseinsieme.png","7.png",0,"UP","SP","UP",1,0,11.6037735849057
"258",9818119,"coordination","trial",2127.79700002383,3,"left",2,"15soloseinsieme.png","2.png",0,"UP","SP","UP",1,0,14.4339622641509
"259",9818119,"coordination","trial",1644.43800002383,4,"left",9,"15soloseinsieme.png","9.png",0,"UP","SP","UP",1,0,10.0471698113208
"260",9818119,"coordination","trial",3077.49500002383,5,"left",12,"12.png","15soloseinsieme.png",0,"SP","UP","SP",0,0,12
"261",9818119,"coordination","trial",1110.15299995232,6,"right",3,"3.png","15soloseinsieme.png",0,"SP","UP","UP",1,0,14.0094339622642
"262",9818119,"coordination","trial",945.239999952319,7,"left",14,"14.png","15soloseinsieme.png",0,"SP","UP","SP",0,0,14
"263",9818119,"coordination","trial",1361.09600004769,8,"left",6,"15soloseinsieme.png","6.png",0,"UP","SP","UP",1,0,13.0188679245283
"264",9818119,"coordination","trial",1227.32500002385,9,"right",13,"15soloseinsieme.png","13.png",0,"UP","SP","SP",0,0,13
"265",9818119,"coordination","trial",2077.91300004767,10,"right",8,"8.png","15soloseinsieme.png",0,"SP","UP","UP",1,0,10.8962264150943
"266",9818119,"coordination","trial",1244.29999999999,11,"left",5,"15soloseinsieme.png","5.png",0,"UP","SP","UP",1,0,13.8679245283019
"267",9818119,"coordination","trial",1311.47899999999,12,"left",11,"11.png","15soloseinsieme.png",0,"SP","UP","SP",0,0,11
"268",9818119,"coordination","trial",963.695000047679,13,"left",10,"10.png","15soloseinsieme.png",0,"SP","UP","SP",0,1,10
"269",9818119,"coordination","trial",1078.40300002386,14,"right",4,"4.png","15soloseinsieme.png",0,"SP","UP","UP",1,0,13.8679245283019
"270",9818119,"coordination","trial",1227.57600002384,15,"left",1,"15soloseinsieme.png","1.png",0,"UP","SP","UP",1,NA,14.4339622641509
"271",9818120,"competition","trial",27565.167,1,"left",14,"14.png","15solosesoli.png",1,"SP","UP","SP",0,0,14
"272",9818120,"competition","trial",5066.46,2,"right",15,"15solosesoli.png","15.png",0,"UP","SP","SP",0,0,15
"273",9818120,"competition","trial",33789.1819999881,3,"right",11,"15solosesoli.png","11.png",1,"UP","SP","SP",0,0,11
"274",9818120,"competition","trial",28588.700999994,4,"right",8,"15solosesoli.png","8.png",1,"UP","SP","SP",0,0,8
"275",9818120,"competition","trial",24061.8589999881,5,"left",3,"15solosesoli.png","3.png",1,"UP","SP","UP",1,0,6.36792452830189
"276",9818120,"competition","trial",2558.05999997616,6,"right",13,"15solosesoli.png","13.png",0,"UP","SP","SP",0,0,13
"277",9818120,"competition","trial",2974.98799998808,7,"left",12,"12.png","15solosesoli.png",0,"SP","UP","SP",0,0,12
"278",9818120,"competition","trial",7387.39999999999,8,"left",10,"10.png","15solosesoli.png",0,"SP","UP","SP",0,0,10
"279",9818120,"competition","trial",5316.25599999996,9,"right",9,"15solosesoli.png","9.png",0,"UP","SP","SP",0,0,9
"280",9818120,"competition","trial",16269.4749999762,10,"right",4,"4.png","15solosesoli.png",1,"SP","UP","UP",1,0,7.21698113207547
"281",9818120,"competition","trial",40662.6479999881,11,"right",5,"5.png","15solosesoli.png",1,"SP","UP","UP",1,0,8.63207547169811
"282",9818120,"competition","trial",60811.7099999881,12,"left",6,"15solosesoli.png","6.png",1,"UP","SP","UP",1,0,8.49056603773585
"283",9818120,"competition","trial",56608.484999994,13,"left",7,"7.png","15solosesoli.png",1,"SP","UP","SP",0,1,7
"284",9818120,"competition","trial",2212.20400000003,14,"right",1,"1.png","15solosesoli.png",0,"SP","UP","UP",1,NA,6.36792452830189
"285",9818120,"competition","trial",987.768999976164,15,"right",2,"2.png","15solosesoli.png",0,"SP","UP","UP",1,0,6.36792452830189
"286",9818120,"coordination","trial",1256.57900000003,1,"right",5,"5.png","15soloseinsieme.png",0,"SP","UP","UP",1,0,13.8679245283019
"287",9818120,"coordination","trial",1215.31199999404,2,"left",15,"15soloseinsieme.png","15.png",0,"UP","SP","UP",1,0,3.82075471698113
"288",9818120,"coordination","trial",1375.984,3,"right",12,"12.png","15soloseinsieme.png",0,"SP","UP","UP",1,0,7.07547169811321
"289",9818120,"coordination","trial",1254.489,4,"left",6,"15soloseinsieme.png","6.png",0,"UP","SP","UP",1,0,13.0188679245283
"290",9818120,"coordination","trial",1269.59799999406,5,"right",2,"2.png","15soloseinsieme.png",0,"SP","UP","UP",1,0,14.4339622641509
"291",9818120,"coordination","trial",907.888999994029,6,"right",10,"10.png","15soloseinsieme.png",0,"SP","UP","UP",1,0,7.78301886792453
"292",9818120,"coordination","trial",1442.59999997617,7,"left",11,"15soloseinsieme.png","11.png",0,"UP","SP","UP",1,0,7.21698113207547
"293",9818120,"coordination","trial",856.613999988069,8,"left",7,"15soloseinsieme.png","7.png",0,"UP","SP","UP",1,0,11.6037735849057
"294",9818120,"coordination","trial",691.08599998214,9,"left",9,"15soloseinsieme.png","9.png",0,"UP","SP","UP",1,0,10.0471698113208
"295",9818120,"coordination","trial",1558.98300000001,10,"right",8,"8.png","15soloseinsieme.png",0,"SP","UP","UP",1,0,10.8962264150943
"296",9818120,"coordination","trial",1158.71199997613,11,"left",3,"15soloseinsieme.png","3.png",0,"UP","SP","UP",1,0,14.0094339622642
"297",9818120,"coordination","trial",633.316999982111,12,"left",1,"15soloseinsieme.png","1.png",0,"UP","SP","UP",1,NA,14.4339622641509
"298",9818120,"coordination","trial",1163.93499998213,13,"right",14,"14.png","15soloseinsieme.png",0,"SP","UP","UP",1,0,5.23584905660377
"299",9818120,"coordination","trial",688.508999994025,14,"right",4,"4.png","15soloseinsieme.png",0,"SP","UP","UP",1,0,13.8679245283019
"300",9818120,"coordination","trial",625.307999982091,15,"right",13,"13.png","15soloseinsieme.png",0,"SP","UP","UP",1,0,5.94339622641509
"301",9818120,"lottery","trial",2122.60199998214,1,"left",13,"13.png","15soloseacaso.png",0,"SP","UP","SP",0,0,13
"302",9818120,"lottery","trial",2075.84499999403,2,"right",15,"15soloseacaso.png","15.png",0,"UP","SP","SP",0,0,15
"303",9818120,"lottery","trial",2187.45199998806,3,"left",9,"9.png","15soloseacaso.png",0,"SP","UP","SP",0,0,9
"304",9818120,"lottery","trial",1160.45499997615,4,"left",14,"14.png","15soloseacaso.png",0,"SP","UP","SP",0,0,14
"305",9818120,"lottery","trial",1431.8879999881,5,"right",3,"3.png","15soloseacaso.png",0,"SP","UP","UP",1,0,7.5
"306",9818120,"lottery","trial",3463.97099998809,6,"right",5,"5.png","15soloseacaso.png",0,"SP","UP","UP",1,0,7.5
"307",9818120,"lottery","trial",1273.53899999999,7,"left",12,"12.png","15soloseacaso.png",0,"SP","UP","SP",0,0,12
"308",9818120,"lottery","trial",1861.57199999405,8,"right",4,"4.png","15soloseacaso.png",0,"SP","UP","UP",1,0,7.5
"309",9818120,"lottery","trial",2011.44099999999,9,"right",11,"15soloseacaso.png","11.png",0,"UP","SP","SP",0,0,11
"310",9818120,"lottery","trial",2117.90799998213,10,"right",8,"15soloseacaso.png","8.png",0,"UP","SP","SP",0,0,8
"311",9818120,"lottery","trial",1262.67699997616,11,"right",2,"2.png","15soloseacaso.png",0,"SP","UP","UP",1,0,7.5
"312",9818120,"lottery","trial",2211.49099998211,12,"right",1,"1.png","15soloseacaso.png",0,"SP","UP","UP",1,NA,7.5
"313",9818120,"lottery","trial",19673.459999994,13,"right",7,"15soloseacaso.png","7.png",1,"UP","SP","SP",0,1,7
"314",9818120,"lottery","trial",1318.84899998805,14,"left",10,"10.png","15soloseacaso.png",0,"SP","UP","SP",0,0,10
"315",9818120,"lottery","trial",2733.08400000003,15,"right",6,"6.png","15soloseacaso.png",0,"SP","UP","UP",1,0,7.5
"316",9818121,"lottery","trial",5932,1,"right",10,"15soloseacaso.png","10.png",0,"UP","SP","SP",0,0,10
"317",9818121,"lottery","trial",3649,2,"left",14,"14.png","15soloseacaso.png",0,"SP","UP","SP",0,0,14
"318",9818121,"lottery","trial",6941,3,"right",2,"2.png","15soloseacaso.png",0,"SP","UP","UP",1,0,7.5
"319",9818121,"lottery","trial",1450,4,"left",8,"8.png","15soloseacaso.png",0,"SP","UP","SP",0,0,8
"320",9818121,"lottery","trial",2931,5,"left",13,"13.png","15soloseacaso.png",0,"SP","UP","SP",0,0,13
"321",9818121,"lottery","trial",2183,6,"right",11,"15soloseacaso.png","11.png",0,"UP","SP","SP",0,0,11
"322",9818121,"lottery","trial",1898,7,"left",9,"9.png","15soloseacaso.png",0,"SP","UP","SP",0,0,9
"323",9818121,"lottery","trial",9496,8,"right",7,"15soloseacaso.png","7.png",0,"UP","SP","SP",0,0,7
"324",9818121,"lottery","trial",1584,9,"left",4,"15soloseacaso.png","4.png",0,"UP","SP","UP",1,0,7.5
"325",9818121,"lottery","trial",1167,10,"left",12,"12.png","15soloseacaso.png",0,"SP","UP","SP",0,0,12
"326",9818121,"lottery","trial",2083,11,"right",15,"15soloseacaso.png","15.png",0,"UP","SP","SP",0,0,15
"327",9818121,"lottery","trial",3315,12,"left",6,"6.png","15soloseacaso.png",0,"SP","UP","SP",0,1,6
"328",9818121,"lottery","trial",3216,13,"left",5,"15soloseacaso.png","5.png",0,"UP","SP","UP",1,0,7.5
"329",9818121,"lottery","trial",2233,14,"left",1,"15soloseacaso.png","1.png",0,"UP","SP","UP",1,NA,7.5
"330",9818121,"lottery","trial",4897,15,"right",3,"3.png","15soloseacaso.png",0,"SP","UP","UP",1,0,7.5
"331",9818121,"coordination","trial",2381,1,"right",2,"2.png","15soloseinsieme.png",0,"SP","UP","UP",1,0,14.4339622641509
"332",9818121,"coordination","trial",2365,2,"left",8,"15soloseinsieme.png","8.png",0,"UP","SP","UP",1,0,10.8962264150943
"333",9818121,"coordination","trial",1334,3,"left",3,"15soloseinsieme.png","3.png",0,"UP","SP","UP",1,0,14.0094339622642
"334",9818121,"coordination","trial",1934,4,"right",9,"9.png","15soloseinsieme.png",0,"SP","UP","UP",1,0,10.0471698113208
"335",9818121,"coordination","trial",2998,5,"left",5,"15soloseinsieme.png","5.png",0,"UP","SP","UP",1,0,13.8679245283019
"336",9818121,"coordination","trial",2699,6,"left",14,"14.png","15soloseinsieme.png",0,"SP","UP","SP",0,0,14
"337",9818121,"coordination","trial",1416,7,"left",12,"12.png","15soloseinsieme.png",0,"SP","UP","SP",0,1,12
"338",9818121,"coordination","trial",800,8,"right",4,"4.png","15soloseinsieme.png",0,"SP","UP","UP",1,0,13.8679245283019
"339",9818121,"coordination","trial",1233,9,"left",7,"15soloseinsieme.png","7.png",0,"UP","SP","UP",1,0,11.6037735849057
"340",9818121,"coordination","trial",2266,10,"right",13,"15soloseinsieme.png","13.png",0,"UP","SP","SP",0,0,13
"341",9818121,"coordination","trial",967,11,"left",6,"15soloseinsieme.png","6.png",0,"UP","SP","UP",1,0,13.0188679245283
"342",9818121,"coordination","trial",967,12,"left",1,"15soloseinsieme.png","1.png",0,"UP","SP","UP",1,NA,14.4339622641509
"343",9818121,"coordination","trial",1067,13,"right",10,"10.png","15soloseinsieme.png",0,"SP","UP","UP",1,0,7.78301886792453
"344",9818121,"coordination","trial",1498,14,"right",15,"15soloseinsieme.png","15.png",0,"UP","SP","SP",0,0,15
"345",9818121,"coordination","trial",1900,15,"left",11,"15soloseinsieme.png","11.png",0,"UP","SP","UP",1,0,7.21698113207547
"346",9818121,"competition","trial",9064,1,"left",9,"9.png","15solosesoli.png",0,"SP","UP","SP",0,1,9
"347",9818121,"competition","trial",1150,2,"right",11,"15solosesoli.png","11.png",0,"UP","SP","SP",0,0,11
"348",9818121,"competition","trial",4414,3,"right",7,"15solosesoli.png","7.png",0,"UP","SP","SP",0,0,7
"349",9818121,"competition","trial",1550,4,"left",12,"12.png","15solosesoli.png",0,"SP","UP","SP",0,0,12
"350",9818121,"competition","trial",15945,5,"left",4,"4.png","15solosesoli.png",1,"SP","UP","SP",0,0,4
"351",9818121,"competition","trial",5564,6,"left",2,"2.png","15solosesoli.png",0,"SP","UP","SP",0,0,2
"352",9818121,"competition","trial",22210,7,"left",5,"5.png","15solosesoli.png",1,"SP","UP","SP",0,0,5
"353",9818121,"competition","trial",2566,8,"left",8,"15solosesoli.png","8.png",0,"UP","SP","UP",1,1,10.188679245283
"354",9818121,"competition","trial",2016,9,"right",6,"15solosesoli.png","6.png",0,"UP","SP","SP",0,0,6
"355",9818121,"competition","trial",5630,10,"left",13,"15solosesoli.png","13.png",0,"UP","SP","UP",1,1,11.4622641509434
"356",9818121,"competition","trial",5482,11,"right",15,"15.png","15solosesoli.png",0,"SP","UP","UP",1,1,13.0188679245283
"357",9818121,"competition","trial",4582,12,"right",1,"15solosesoli.png","1.png",0,"UP","SP","SP",0,NA,1
"358",9818121,"competition","trial",2698,13,"left",10,"10.png","15solosesoli.png",0,"SP","UP","SP",0,0,10
"359",9818121,"competition","trial",1132,14,"left",14,"14.png","15solosesoli.png",0,"SP","UP","SP",0,1,14
"360",9818121,"competition","trial",2883,15,"right",3,"15solosesoli.png","3.png",0,"UP","SP","SP",0,0,3
"361",9818122,"coordination","trial",7064,1,"right",6,"6.png","15soloseinsieme.png",0,"SP","UP","UP",1,0,13.0188679245283
"362",9818122,"coordination","trial",5255,2,"right",15,"15soloseinsieme.png","15.png",0,"UP","SP","SP",0,1,15
"363",9818122,"coordination","trial",7824,3,"left",10,"15soloseinsieme.png","10.png",0,"UP","SP","UP",1,0,7.78301886792453
"364",9818122,"coordination","trial",2394,4,"left",2,"15soloseinsieme.png","2.png",0,"UP","SP","UP",1,0,14.4339622641509
"365",9818122,"coordination","trial",1039.00000000001,5,"left",1,"15soloseinsieme.png","1.png",0,"UP","SP","UP",1,NA,14.4339622641509
"366",9818122,"coordination","trial",1673,6,"right",11,"11.png","15soloseinsieme.png",0,"SP","UP","UP",1,0,7.21698113207547
"367",9818122,"coordination","trial",1089.00000000001,7,"right",8,"8.png","15soloseinsieme.png",0,"SP","UP","UP",1,0,10.8962264150943
"368",9818122,"coordination","trial",2257,8,"left",13,"15soloseinsieme.png","13.png",0,"UP","SP","UP",1,0,5.94339622641509
"369",9818122,"coordination","trial",2124,9,"right",12,"12.png","15soloseinsieme.png",0,"SP","UP","UP",1,0,7.07547169811321
"370",9818122,"coordination","trial",956.000000000007,10,"left",3,"15soloseinsieme.png","3.png",0,"UP","SP","UP",1,0,14.0094339622642
"371",9818122,"coordination","trial",756.000000000007,11,"left",5,"15soloseinsieme.png","5.png",0,"UP","SP","UP",1,0,13.8679245283019
"372",9818122,"coordination","trial",1221,12,"right",4,"4.png","15soloseinsieme.png",0,"SP","UP","UP",1,0,13.8679245283019
"373",9818122,"coordination","trial",2192,13,"left",9,"15soloseinsieme.png","9.png",0,"UP","SP","UP",1,0,10.0471698113208
"374",9818122,"coordination","trial",1822,14,"left",7,"15soloseinsieme.png","7.png",0,"UP","SP","UP",1,0,11.6037735849057
"375",9818122,"coordination","trial",1523,15,"right",14,"14.png","15soloseinsieme.png",0,"SP","UP","UP",1,0,5.23584905660377
"376",9818122,"lottery","trial",6974,1,"right",4,"4.png","15soloseacaso.png",0,"SP","UP","UP",1,0,7.5
"377",9818122,"lottery","trial",3124,2,"left",9,"15soloseacaso.png","9.png",0,"UP","SP","UP",1,0,7.5
"378",9818122,"lottery","trial",6623,3,"left",10,"10.png","15soloseacaso.png",0,"SP","UP","SP",0,1,10
"379",9818122,"lottery","trial",1023,4,"left",14,"14.png","15soloseacaso.png",0,"SP","UP","SP",0,0,14
"380",9818122,"lottery","trial",839,5,"left",12,"12.png","15soloseacaso.png",0,"SP","UP","SP",0,0,12
"381",9818122,"lottery","trial",1172,6,"left",11,"11.png","15soloseacaso.png",0,"SP","UP","SP",0,0,11
"382",9818122,"lottery","trial",4724,7,"left",3,"15soloseacaso.png","3.png",0,"UP","SP","UP",1,0,7.5
"383",9818122,"lottery","trial",1273,8,"right",13,"15soloseacaso.png","13.png",0,"UP","SP","SP",0,0,13
"384",9818122,"lottery","trial",839,9,"right",1,"1.png","15soloseacaso.png",0,"SP","UP","UP",1,NA,7.5
"385",9818122,"lottery","trial",740,10,"right",6,"6.png","15soloseacaso.png",0,"SP","UP","UP",1,0,7.5
"386",9818122,"lottery","trial",1372,11,"left",8,"15soloseacaso.png","8.png",0,"UP","SP","UP",1,0,7.5
"387",9818122,"lottery","trial",806,12,"left",15,"15.png","15soloseacaso.png",0,"SP","UP","SP",0,0,15
"388",9818122,"lottery","trial",923,13,"right",2,"2.png","15soloseacaso.png",0,"SP","UP","UP",1,0,7.5
"389",9818122,"lottery","trial",889,14,"right",5,"5.png","15soloseacaso.png",0,"SP","UP","UP",1,0,7.5
"390",9818122,"lottery","trial",1188.99999999999,15,"left",7,"15soloseacaso.png","7.png",0,"UP","SP","UP",1,0,7.5
"391",9818122,"competition","trial",5009,1,"right",14,"15solosesoli.png","14.png",0,"UP","SP","SP",0,0,14
"392",9818122,"competition","trial",2907,2,"right",6,"6.png","15solosesoli.png",0,"SP","UP","UP",1,0,8.49056603773585
"393",9818122,"competition","trial",1039,3,"left",2,"15solosesoli.png","2.png",0,"UP","SP","UP",1,0,6.36792452830189
"394",9818122,"competition","trial",1073,4,"right",15,"15solosesoli.png","15.png",0,"UP","SP","SP",0,0,15
"395",9818122,"competition","trial",2091,5,"left",11,"15solosesoli.png","11.png",0,"UP","SP","UP",1,1,11.1792452830189
"396",9818122,"competition","trial",822,6,"left",8,"15solosesoli.png","8.png",0,"UP","SP","UP",1,0,10.188679245283
"397",9818122,"competition","trial",823.000000000029,7,"right",1,"1.png","15solosesoli.png",0,"SP","UP","UP",1,NA,6.36792452830189
"398",9818122,"competition","trial",1023,8,"right",13,"15solosesoli.png","13.png",0,"UP","SP","SP",0,0,13
"399",9818122,"competition","trial",772,9,"right",9,"9.png","15solosesoli.png",0,"SP","UP","UP",1,0,11.6037735849057
"400",9818122,"competition","trial",1156,10,"right",12,"15solosesoli.png","12.png",0,"UP","SP","SP",0,1,12
"401",9818122,"competition","trial",872,11,"right",7,"7.png","15solosesoli.png",0,"SP","UP","UP",1,0,9.90566037735849
"402",9818122,"competition","trial",5907,12,"left",10,"10.png","15solosesoli.png",0,"SP","UP","SP",0,1,10
"403",9818122,"competition","trial",4955,13,"right",5,"5.png","15solosesoli.png",0,"SP","UP","UP",1,0,8.63207547169811
"404",9818122,"competition","trial",922,14,"left",3,"15solosesoli.png","3.png",0,"UP","SP","UP",1,0,6.36792452830189
"405",9818122,"competition","trial",672,15,"left",4,"15solosesoli.png","4.png",0,"UP","SP","UP",1,0,7.21698113207547
"406",9818124,"competition","trial",10807.704,1,"left",12,"12.png","15solosesoli.png",0,"SP","UP","SP",0,0,12
"407",9818124,"competition","trial",10971.8459999996,2,"right",4,"4.png","15solosesoli.png",0,"SP","UP","UP",1,0,7.21698113207547
"408",9818124,"competition","trial",10414.615,3,"left",10,"10.png","15solosesoli.png",0,"SP","UP","SP",0,0,10
"409",9818124,"competition","trial",7116.38800000001,4,"left",2,"15solosesoli.png","2.png",0,"UP","SP","UP",1,0,6.36792452830189
"410",9818124,"competition","trial",3040.54000000037,5,"right",11,"15solosesoli.png","11.png",0,"UP","SP","SP",0,0,11
"411",9818124,"competition","trial",2918.85799999963,6,"right",13,"15solosesoli.png","13.png",0,"UP","SP","SP",0,0,13
"412",9818124,"competition","trial",6316.72799999999,7,"right",7,"15solosesoli.png","7.png",0,"UP","SP","SP",0,1,7
"413",9818124,"competition","trial",3696.45800000038,8,"right",1,"1.png","15solosesoli.png",0,"SP","UP","UP",1,NA,6.36792452830189
"414",9818124,"competition","trial",3760.85000000001,9,"left",15,"15.png","15solosesoli.png",0,"SP","UP","SP",0,0,15
"415",9818124,"competition","trial",5315.204,10,"right",6,"6.png","15solosesoli.png",0,"SP","UP","UP",1,0,8.49056603773585
"416",9818124,"competition","trial",3271.30999999926,11,"right",5,"5.png","15solosesoli.png",0,"SP","UP","UP",1,0,8.63207547169811
"417",9818124,"competition","trial",6886.60700000037,12,"right",9,"15solosesoli.png","9.png",0,"UP","SP","SP",0,0,9
"418",9818124,"competition","trial",2225.76600000075,13,"right",3,"3.png","15solosesoli.png",0,"SP","UP","UP",1,0,6.36792452830189
"419",9818124,"competition","trial",2709.44600000075,14,"left",14,"14.png","15solosesoli.png",0,"SP","UP","SP",0,0,14
"420",9818124,"competition","trial",5927.97299999924,15,"right",8,"15solosesoli.png","8.png",0,"UP","SP","SP",0,0,8
"421",9818124,"coordination","trial",6182.897,1,"left",12,"12.png","15soloseinsieme.png",0,"SP","UP","SP",0,0,12
"422",9818124,"coordination","trial",3152.68800000075,2,"left",9,"15soloseinsieme.png","9.png",0,"UP","SP","UP",1,0,10.0471698113208
"423",9818124,"coordination","trial",3208.75600000037,3,"left",15,"15.png","15soloseinsieme.png",0,"SP","UP","SP",0,0,15
"424",9818124,"coordination","trial",2963.16099999927,4,"right",8,"8.png","15soloseinsieme.png",0,"SP","UP","UP",1,0,10.8962264150943
"425",9818124,"coordination","trial",2004.18400000039,5,"right",13,"15soloseinsieme.png","13.png",0,"UP","SP","SP",0,0,13
"426",9818124,"coordination","trial",3233.31100000002,6,"left",6,"15soloseinsieme.png","6.png",0,"UP","SP","UP",1,0,13.0188679245283
"427",9818124,"coordination","trial",1994.68200000076,7,"left",4,"15soloseinsieme.png","4.png",0,"UP","SP","UP",1,0,13.8679245283019
"428",9818124,"coordination","trial",1449.35000000001,8,"left",3,"15soloseinsieme.png","3.png",0,"UP","SP","UP",1,0,14.0094339622642
"429",9818124,"coordination","trial",1959.78600000075,9,"right",1,"1.png","15soloseinsieme.png",0,"SP","UP","UP",1,NA,14.4339622641509
"430",9818124,"coordination","trial",2919.71099999925,10,"left",11,"11.png","15soloseinsieme.png",0,"SP","UP","SP",0,1,11
"431",9818124,"coordination","trial",3288.67600000039,11,"right",10,"10.png","15soloseinsieme.png",0,"SP","UP","UP",1,0,7.78301886792453
"432",9818124,"coordination","trial",1904.834,12,"left",14,"14.png","15soloseinsieme.png",0,"SP","UP","SP",0,0,14
"433",9818124,"coordination","trial",2650.08499999996,13,"right",2,"2.png","15soloseinsieme.png",0,"SP","UP","UP",1,0,14.4339622641509
"434",9818124,"coordination","trial",9815.97599999997,14,"left",5,"15soloseinsieme.png","5.png",0,"UP","SP","UP",1,0,13.8679245283019
"435",9818124,"coordination","trial",4194.37400000074,15,"right",7,"7.png","15soloseinsieme.png",0,"SP","UP","UP",1,0,11.6037735849057
"436",9818124,"lottery","trial",4670.70999999961,1,"left",14,"14.png","15soloseacaso.png",0,"SP","UP","SP",0,0,14
"437",9818124,"lottery","trial",2255.04900000076,2,"right",1,"1.png","15soloseacaso.png",0,"SP","UP","UP",1,NA,7.5
"438",9818124,"lottery","trial",5782.58999999997,3,"right",4,"4.png","15soloseacaso.png",0,"SP","UP","UP",1,0,7.5
"439",9818124,"lottery","trial",1473.929,4,"right",2,"2.png","15soloseacaso.png",0,"SP","UP","UP",1,0,7.5
"440",9818124,"lottery","trial",1473.867,5,"left",8,"8.png","15soloseacaso.png",0,"SP","UP","SP",0,1,8
"441",9818124,"lottery","trial",1486.62500000076,6,"left",12,"12.png","15soloseacaso.png",0,"SP","UP","SP",0,1,12
"442",9818124,"lottery","trial",3272.88099999927,7,"left",11,"15soloseacaso.png","11.png",0,"UP","SP","UP",1,1,7.5
"443",9818124,"lottery","trial",1794.67399999924,8,"right",13,"15soloseacaso.png","13.png",0,"UP","SP","SP",0,0,13
"444",9818124,"lottery","trial",3893.02499999927,9,"left",6,"15soloseacaso.png","6.png",0,"UP","SP","UP",1,0,7.5
"445",9818124,"lottery","trial",3497.98500000074,10,"right",10,"15soloseacaso.png","10.png",0,"UP","SP","SP",0,0,10
"446",9818124,"lottery","trial",3186.38400000072,11,"left",15,"15.png","15soloseacaso.png",0,"SP","UP","SP",0,0,15
"447",9818124,"lottery","trial",3012.58099999925,12,"right",5,"5.png","15soloseacaso.png",0,"SP","UP","UP",1,0,7.5
"448",9818124,"lottery","trial",5557.71999999927,13,"left",7,"15soloseacaso.png","7.png",0,"UP","SP","UP",1,0,7.5
"449",9818124,"lottery","trial",2296.63200000074,14,"right",9,"15soloseacaso.png","9.png",0,"UP","SP","SP",0,0,9
"450",9818124,"lottery","trial",1865.20599999966,15,"left",3,"15soloseacaso.png","3.png",0,"UP","SP","UP",1,0,7.5
"451",9818123,"coordination","trial",2267.87200001192,1,"left",4,"15soloseinsieme.png","4.png",0,"UP","SP","UP",1,0,13.8679245283019
"452",9818123,"coordination","trial",5112.126,2,"left",1,"15soloseinsieme.png","1.png",0,"UP","SP","UP",1,NA,14.4339622641509
"453",9818123,"coordination","trial",3990.291,3,"left",5,"15soloseinsieme.png","5.png",0,"UP","SP","UP",1,0,13.8679245283019
"454",9818123,"coordination","trial",3506.52300001192,4,"right",8,"8.png","15soloseinsieme.png",0,"SP","UP","UP",1,0,10.8962264150943
"455",9818123,"coordination","trial",3176.00799998808,5,"left",6,"15soloseinsieme.png","6.png",0,"UP","SP","UP",1,0,13.0188679245283
"456",9818123,"coordination","trial",1565.31399999999,6,"left",9,"15soloseinsieme.png","9.png",0,"UP","SP","UP",1,0,10.0471698113208
"457",9818123,"coordination","trial",6485.25800002384,7,"right",13,"13.png","15soloseinsieme.png",0,"SP","UP","UP",1,0,5.94339622641509
"458",9818123,"coordination","trial",3033.68399998808,8,"left",7,"15soloseinsieme.png","7.png",0,"UP","SP","UP",1,0,11.6037735849057
"459",9818123,"coordination","trial",1451.74500002384,9,"left",15,"15soloseinsieme.png","15.png",0,"UP","SP","UP",1,0,3.82075471698113
"460",9818123,"coordination","trial",749.914999999994,10,"left",14,"15soloseinsieme.png","14.png",0,"UP","SP","UP",1,0,5.23584905660377
"461",9818123,"coordination","trial",1329.46900001192,11,"right",12,"12.png","15soloseinsieme.png",0,"SP","UP","UP",1,0,7.07547169811321
"462",9818123,"coordination","trial",1360.557,12,"left",3,"15soloseinsieme.png","3.png",0,"UP","SP","UP",1,0,14.0094339622642
"463",9818123,"coordination","trial",1284.89399998808,13,"right",10,"10.png","15soloseinsieme.png",0,"SP","UP","UP",1,0,7.78301886792453
"464",9818123,"coordination","trial",1189.50000002384,14,"right",2,"2.png","15soloseinsieme.png",0,"SP","UP","UP",1,0,14.4339622641509
"465",9818123,"coordination","trial",1467.93899997616,15,"left",11,"15soloseinsieme.png","11.png",0,"UP","SP","UP",1,0,7.21698113207547
"466",9818123,"lottery","trial",3326.13499999999,1,"left",12,"12.png","15soloseacaso.png",0,"SP","UP","SP",0,0,12
"467",9818123,"lottery","trial",2924.03000002383,2,"right",4,"4.png","15soloseacaso.png",0,"SP","UP","UP",1,0,7.5
"468",9818123,"lottery","trial",4113.61099999999,3,"right",3,"3.png","15soloseacaso.png",0,"SP","UP","UP",1,0,7.5
"469",9818123,"lottery","trial",2590.107,4,"right",7,"15soloseacaso.png","7.png",0,"UP","SP","SP",0,0,7
"470",9818123,"lottery","trial",2197.21500001191,5,"left",15,"15.png","15soloseacaso.png",0,"SP","UP","SP",0,0,15
"471",9818123,"lottery","trial",2162.92,6,"left",13,"13.png","15soloseacaso.png",0,"SP","UP","SP",0,0,13
"472",9818123,"lottery","trial",3100.42299998808,7,"right",2,"2.png","15soloseacaso.png",0,"SP","UP","UP",1,0,7.5
"473",9818123,"lottery","trial",4546.734,8,"left",6,"6.png","15soloseacaso.png",0,"SP","UP","SP",0,0,6
"474",9818123,"lottery","trial",1224.927,9,"left",14,"14.png","15soloseacaso.png",0,"SP","UP","SP",0,0,14
"475",9818123,"lottery","trial",1375.808,10,"right",1,"1.png","15soloseacaso.png",0,"SP","UP","UP",1,NA,7.5
"476",9818123,"lottery","trial",2597.07299999999,11,"left",9,"9.png","15soloseacaso.png",0,"SP","UP","SP",0,0,9
"477",9818123,"lottery","trial",3354.85200001192,12,"right",5,"15soloseacaso.png","5.png",0,"UP","SP","SP",0,1,5
"478",9818123,"lottery","trial",1733.148,13,"right",10,"15soloseacaso.png","10.png",0,"UP","SP","SP",0,0,10
"479",9818123,"lottery","trial",2068.77600002385,14,"right",11,"15soloseacaso.png","11.png",0,"UP","SP","SP",0,0,11
"480",9818123,"lottery","trial",4249.09200001192,15,"left",8,"8.png","15soloseacaso.png",0,"SP","UP","SP",0,0,8
"481",9818123,"competition","trial",7131.31399998808,1,"right",13,"15solosesoli.png","13.png",0,"UP","SP","SP",0,1,13
"482",9818123,"competition","trial",3307.57299998807,2,"right",4,"4.png","15solosesoli.png",0,"SP","UP","UP",1,0,7.21698113207547
"483",9818123,"competition","trial",6265.02200001193,3,"left",11,"15solosesoli.png","11.png",0,"UP","SP","UP",1,1,11.1792452830189
"484",9818123,"competition","trial",4445.16999998808,4,"left",9,"9.png","15solosesoli.png",0,"SP","UP","SP",0,1,9
"485",9818123,"competition","trial",8525.29899997616,5,"left",2,"15solosesoli.png","2.png",0,"UP","SP","UP",1,0,6.36792452830189
"486",9818123,"competition","trial",8492.31599999999,6,"right",10,"15solosesoli.png","10.png",0,"UP","SP","SP",0,0,10
"487",9818123,"competition","trial",1428.65200002384,7,"left",12,"15solosesoli.png","12.png",0,"UP","SP","UP",1,0,11.1792452830189
"488",9818123,"competition","trial",3251.96499997616,8,"left",15,"15.png","15solosesoli.png",0,"SP","UP","SP",0,0,15
"489",9818123,"competition","trial",2071.85200002385,9,"right",3,"3.png","15solosesoli.png",0,"SP","UP","UP",1,0,6.36792452830189
"490",9818123,"competition","trial",3409.62499998807,10,"right",5,"15solosesoli.png","5.png",0,"UP","SP","SP",0,1,5
"491",9818123,"competition","trial",1971.71399997617,11,"right",6,"6.png","15solosesoli.png",0,"SP","UP","UP",1,1,8.49056603773585
"492",9818123,"competition","trial",5462.52800000002,12,"left",7,"15solosesoli.png","7.png",0,"UP","SP","UP",1,0,9.90566037735849
"493",9818123,"competition","trial",1081.62800002383,13,"left",8,"15solosesoli.png","8.png",0,"UP","SP","UP",1,0,10.188679245283
"494",9818123,"competition","trial",4083.21899997615,14,"right",1,"1.png","15solosesoli.png",0,"SP","UP","UP",1,NA,6.36792452830189
"495",9818123,"competition","trial",2042.06299998809,15,"left",14,"14.png","15solosesoli.png",0,"SP","UP","SP",0,0,14
"496",9818117,"competition","trial",19509.261,1,"left",1,"1.png","15solosesoli.png",1,"SP","UP","SP",0,NA,1
"497",9818117,"competition","trial",5439.18199990463,2,"left",13,"13.png","15solosesoli.png",0,"SP","UP","SP",0,0,13
"498",9818117,"competition","trial",4274.22399995232,3,"right",11,"15solosesoli.png","11.png",0,"UP","SP","SP",0,0,11
"499",9818117,"competition","trial",2800.37599990463,4,"right",4,"15solosesoli.png","4.png",0,"UP","SP","SP",0,0,4
"500",9818117,"competition","trial",5237.14200000001,5,"right",8,"15solosesoli.png","8.png",0,"UP","SP","SP",0,0,8
"501",9818117,"competition","trial",2785.19899999999,6,"left",2,"2.png","15solosesoli.png",0,"SP","UP","SP",0,0,2
"502",9818117,"competition","trial",2228.14199992847,7,"left",12,"12.png","15solosesoli.png",0,"SP","UP","SP",0,0,12
"503",9818117,"competition","trial",1378.91699995231,8,"left",14,"14.png","15solosesoli.png",0,"SP","UP","SP",0,0,14
"504",9818117,"competition","trial",1365.01699999999,9,"left",7,"7.png","15solosesoli.png",0,"SP","UP","SP",0,0,7
"505",9818117,"competition","trial",1934.90299992847,10,"left",9,"9.png","15solosesoli.png",0,"SP","UP","SP",0,0,9
"506",9818117,"competition","trial",1673.272,11,"right",10,"15solosesoli.png","10.png",0,"UP","SP","SP",0,0,10
"507",9818117,"competition","trial",2057.44399997615,12,"left",6,"6.png","15solosesoli.png",0,"SP","UP","SP",0,0,6
"508",9818117,"competition","trial",919.094999904628,13,"left",3,"3.png","15solosesoli.png",0,"SP","UP","SP",0,0,3
"509",9818117,"competition","trial",1389.67600000001,14,"right",15,"15solosesoli.png","15.png",0,"UP","SP","SP",0,0,15
"510",9818117,"competition","trial",1181.41899995232,15,"left",5,"5.png","15solosesoli.png",0,"SP","UP","SP",0,0,5
"511",9818117,"lottery","trial",9772.07299997615,1,"left",9,"9.png","15soloseacaso.png",0,"SP","UP","SP",0,0,9
"512",9818117,"lottery","trial",2619.01899990463,2,"right",15,"15soloseacaso.png","15.png",0,"UP","SP","SP",0,0,15
"513",9818117,"lottery","trial",2533.74499992849,3,"left",8,"8.png","15soloseacaso.png",0,"SP","UP","SP",0,0,8
"514",9818117,"lottery","trial",1493.59399995231,4,"left",13,"13.png","15soloseacaso.png",0,"SP","UP","SP",0,0,13
"515",9818117,"lottery","trial",11704.5209999523,5,"right",6,"15soloseacaso.png","6.png",0,"UP","SP","SP",0,1,6
"516",9818117,"lottery","trial",1248.747,6,"left",7,"7.png","15soloseacaso.png",0,"SP","UP","SP",0,0,7
"517",9818117,"lottery","trial",1264.82899999997,7,"right",10,"15soloseacaso.png","10.png",0,"UP","SP","SP",0,0,10
"518",9818117,"lottery","trial",1829.68599999999,8,"left",2,"15soloseacaso.png","2.png",0,"UP","SP","UP",1,0,7.5
"519",9818117,"lottery","trial",3769.77899990464,9,"left",3,"15soloseacaso.png","3.png",0,"UP","SP","UP",1,0,7.5
"520",9818117,"lottery","trial",1974.53199995231,10,"right",1,"1.png","15soloseacaso.png",0,"SP","UP","UP",1,NA,7.5
"521",9818117,"lottery","trial",2083.67299990464,11,"left",14,"14.png","15soloseacaso.png",0,"SP","UP","SP",0,0,14
"522",9818117,"lottery","trial",2779.69500000001,12,"left",5,"15soloseacaso.png","5.png",0,"UP","SP","UP",1,0,7.5
"523",9818117,"lottery","trial",1161.39999997616,13,"left",4,"15soloseacaso.png","4.png",0,"UP","SP","UP",1,0,7.5
"524",9818117,"lottery","trial",917.851999928476,14,"left",12,"12.png","15soloseacaso.png",0,"SP","UP","SP",0,0,12
"525",9818117,"lottery","trial",2034.17199997616,15,"right",11,"15soloseacaso.png","11.png",0,"UP","SP","SP",0,0,11
"526",9818117,"coordination","trial",7307.50700000001,1,"left",12,"15soloseinsieme.png","12.png",0,"UP","SP","UP",1,0,7.07547169811321
"527",9818117,"coordination","trial",1144.30999990462,2,"left",2,"15soloseinsieme.png","2.png",0,"UP","SP","UP",1,0,14.4339622641509
"528",9818117,"coordination","trial",2088.16199997615,3,"left",15,"15.png","15soloseinsieme.png",0,"SP","UP","SP",0,1,15
"529",9818117,"coordination","trial",1667.13699990464,4,"right",14,"14.png","15soloseinsieme.png",0,"SP","UP","UP",1,0,5.23584905660377
"530",9818117,"coordination","trial",5032.89499999999,5,"left",7,"15soloseinsieme.png","7.png",0,"UP","SP","UP",1,0,11.6037735849057
"531",9818117,"coordination","trial",1467.821,6,"left",10,"15soloseinsieme.png","10.png",0,"UP","SP","UP",1,0,7.78301886792453
"532",9818117,"coordination","trial",845.942999976163,7,"left",3,"15soloseinsieme.png","3.png",0,"UP","SP","UP",1,0,14.0094339622642
"533",9818117,"coordination","trial",1727.90099990464,8,"right",9,"9.png","15soloseinsieme.png",0,"SP","UP","UP",1,0,10.0471698113208
"534",9818117,"coordination","trial",1142.42899997617,9,"left",13,"15soloseinsieme.png","13.png",0,"UP","SP","UP",1,0,5.94339622641509
"535",9818117,"coordination","trial",6481.14599995231,10,"right",11,"11.png","15soloseinsieme.png",0,"SP","UP","UP",1,0,7.21698113207547
"536",9818117,"coordination","trial",994.024999976158,11,"right",5,"5.png","15soloseinsieme.png",0,"SP","UP","UP",1,0,13.8679245283019
"537",9818117,"coordination","trial",777.55599995231,12,"right",6,"6.png","15soloseinsieme.png",0,"SP","UP","UP",1,0,13.0188679245283
"538",9818117,"coordination","trial",713.42599992847,13,"right",8,"8.png","15soloseinsieme.png",0,"SP","UP","UP",1,0,10.8962264150943
"539",9818117,"coordination","trial",2138.19699997615,14,"left",1,"15soloseinsieme.png","1.png",0,"UP","SP","UP",1,NA,14.4339622641509
"540",9818117,"coordination","trial",1139.89699995233,15,"right",4,"4.png","15soloseinsieme.png",0,"SP","UP","UP",1,0,13.8679245283019
"541",9818116,"lottery","trial",3160.39499997616,1,"left",1,"15soloseacaso.png","1.png",0,"UP","SP","UP",1,NA,7.5
"542",9818116,"lottery","trial",1745.69400004768,2,"left",12,"12.png","15soloseacaso.png",0,"SP","UP","SP",0,0,12
"543",9818116,"lottery","trial",2055.243,3,"right",4,"4.png","15soloseacaso.png",0,"SP","UP","UP",1,0,7.5
"544",9818116,"lottery","trial",1883.707,4,"right",15,"15soloseacaso.png","15.png",0,"UP","SP","SP",0,0,15
"545",9818116,"lottery","trial",1684.92199997616,5,"left",2,"15soloseacaso.png","2.png",0,"UP","SP","UP",1,0,7.5
"546",9818116,"lottery","trial",1172.99599997616,6,"left",7,"7.png","15soloseacaso.png",0,"SP","UP","SP",0,1,7
"547",9818116,"lottery","trial",1976.96600004769,7,"right",5,"15soloseacaso.png","5.png",0,"UP","SP","SP",0,1,5
"548",9818116,"lottery","trial",2078.55800002384,8,"right",11,"15soloseacaso.png","11.png",0,"UP","SP","SP",0,1,11
"549",9818116,"lottery","trial",2099.50099997615,9,"right",3,"3.png","15soloseacaso.png",0,"SP","UP","UP",1,0,7.5
"550",9818116,"lottery","trial",3536.98600002384,10,"left",8,"8.png","15soloseacaso.png",0,"SP","UP","SP",0,0,8
"551",9818116,"lottery","trial",1571.087,11,"left",6,"15soloseacaso.png","6.png",0,"UP","SP","UP",1,1,7.5
"552",9818116,"lottery","trial",1445.35000000001,12,"left",9,"9.png","15soloseacaso.png",0,"SP","UP","SP",0,0,9
"553",9818116,"lottery","trial",1404.07000002384,13,"left",13,"13.png","15soloseacaso.png",0,"SP","UP","SP",0,0,13
"554",9818116,"lottery","trial",2473.81500002384,14,"right",14,"15soloseacaso.png","14.png",0,"UP","SP","SP",0,0,14
"555",9818116,"lottery","trial",1670.57199997616,15,"right",10,"10.png","15soloseacaso.png",0,"SP","UP","UP",1,1,7.5
"556",9818116,"coordination","trial",1147.19700004768,1,"left",1,"15soloseinsieme.png","1.png",0,"UP","SP","UP",1,NA,14.4339622641509
"557",9818116,"coordination","trial",2161.76000007153,2,"right",6,"6.png","15soloseinsieme.png",0,"SP","UP","UP",1,0,13.0188679245283
"558",9818116,"coordination","trial",1716.01200002384,3,"left",4,"15soloseinsieme.png","4.png",0,"UP","SP","UP",1,0,13.8679245283019
"559",9818116,"coordination","trial",1440.64900002384,4,"left",5,"15soloseinsieme.png","5.png",0,"UP","SP","UP",1,0,13.8679245283019
"560",9818116,"coordination","trial",1945.51300004768,5,"right",8,"15soloseinsieme.png","8.png",0,"UP","SP","SP",0,1,8
"561",9818116,"coordination","trial",2153.15200009537,6,"right",11,"15soloseinsieme.png","11.png",0,"UP","SP","SP",0,1,11
"562",9818116,"coordination","trial",1605.71900004768,7,"left",13,"13.png","15soloseinsieme.png",0,"SP","UP","SP",0,0,13
"563",9818116,"coordination","trial",1169.30600007153,8,"left",14,"14.png","15soloseinsieme.png",0,"SP","UP","SP",0,0,14
"564",9818116,"coordination","trial",1071.53700002384,9,"left",2,"15soloseinsieme.png","2.png",0,"UP","SP","UP",1,0,14.4339622641509
"565",9818116,"coordination","trial",1366.22500002384,10,"left",3,"15soloseinsieme.png","3.png",0,"UP","SP","UP",1,0,14.0094339622642
"566",9818116,"coordination","trial",2528.24200007152,11,"left",15,"15.png","15soloseinsieme.png",0,"SP","UP","SP",0,0,15
"567",9818116,"coordination","trial",1317.036,12,"right",9,"9.png","15soloseinsieme.png",0,"SP","UP","UP",1,1,10.0471698113208
"568",9818116,"coordination","trial",2520.60000002384,13,"left",12,"12.png","15soloseinsieme.png",0,"SP","UP","SP",0,0,12
"569",9818116,"coordination","trial",1162.585,14,"right",10,"10.png","15soloseinsieme.png",0,"SP","UP","UP",1,0,7.78301886792453
"570",9818116,"coordination","trial",1121.25900002384,15,"left",7,"15soloseinsieme.png","7.png",0,"UP","SP","UP",1,0,11.6037735849057
"571",9818116,"competition","trial",2968.21000009537,1,"left",2,"15solosesoli.png","2.png",0,"UP","SP","UP",1,0,6.36792452830189
"572",9818116,"competition","trial",4703.44200009537,2,"right",11,"11.png","15solosesoli.png",0,"SP","UP","UP",1,0,11.1792452830189
"573",9818116,"competition","trial",2620.47000009537,3,"right",4,"15solosesoli.png","4.png",0,"UP","SP","SP",0,1,4
"574",9818116,"competition","trial",2347.94100004769,4,"right",10,"10.png","15solosesoli.png",0,"SP","UP","UP",1,1,11.3207547169811
"575",9818116,"competition","trial",1833.699,5,"right",5,"5.png","15solosesoli.png",0,"SP","UP","UP",1,1,8.63207547169811
"576",9818116,"competition","trial",1146.95400007153,6,"left",15,"15.png","15solosesoli.png",0,"SP","UP","SP",0,0,15
"577",9818116,"competition","trial",5151.36800009537,7,"left",9,"9.png","15solosesoli.png",0,"SP","UP","SP",0,0,9
"578",9818116,"competition","trial",2041.221,8,"right",1,"1.png","15solosesoli.png",0,"SP","UP","UP",1,NA,6.36792452830189
"579",9818116,"competition","trial",1447.45800009537,9,"right",14,"15solosesoli.png","14.png",0,"UP","SP","SP",0,0,14
"580",9818116,"competition","trial",3441.43900009537,10,"right",6,"6.png","15solosesoli.png",0,"SP","UP","UP",1,0,8.49056603773585
"581",9818116,"competition","trial",2849.26200009536,11,"left",12,"12.png","15solosesoli.png",0,"SP","UP","SP",0,1,12
"582",9818116,"competition","trial",2211.47500002384,12,"left",3,"15solosesoli.png","3.png",0,"UP","SP","UP",1,0,6.36792452830189
"583",9818116,"competition","trial",4476.628,13,"right",7,"15solosesoli.png","7.png",0,"UP","SP","SP",0,1,7
"584",9818116,"competition","trial",1604.26900007152,14,"left",13,"13.png","15solosesoli.png",0,"SP","UP","SP",0,0,13
"585",9818116,"competition","trial",2300.261,15,"right",8,"15solosesoli.png","8.png",0,"UP","SP","SP",0,0,8
"586",9818115,"competition","trial",7946,1,"right",2,"2.png","15solosesoli.png",0,"SP","UP","UP",1,0,6.36792452830189
"587",9818115,"competition","trial",3557,2,"right",11,"15solosesoli.png","11.png",0,"UP","SP","SP",0,0,11
"588",9818115,"competition","trial",5006,3,"right",12,"12.png","15solosesoli.png",0,"SP","UP","UP",1,1,11.1792452830189
"589",9818115,"competition","trial",2199,4,"right",1,"1.png","15solosesoli.png",0,"SP","UP","UP",1,NA,6.36792452830189
"590",9818115,"competition","trial",2203.00000000001,5,"right",3,"3.png","15solosesoli.png",0,"SP","UP","UP",1,0,6.36792452830189
"591",9818115,"competition","trial",4769,6,"right",7,"15solosesoli.png","7.png",0,"UP","SP","SP",0,1,7
"592",9818115,"competition","trial",1720.00000000001,7,"left",4,"15solosesoli.png","4.png",0,"UP","SP","UP",1,0,7.21698113207547
"593",9818115,"competition","trial",2642,8,"left",6,"15solosesoli.png","6.png",0,"UP","SP","UP",1,0,8.49056603773585
"594",9818115,"competition","trial",7246,9,"right",10,"15solosesoli.png","10.png",0,"UP","SP","SP",0,0,10
"595",9818115,"competition","trial",1625.00000000001,10,"left",14,"14.png","15solosesoli.png",0,"SP","UP","SP",0,0,14
"596",9818115,"competition","trial",1772.00000000001,11,"left",13,"13.png","15solosesoli.png",0,"SP","UP","SP",0,1,13
"597",9818115,"competition","trial",7914,12,"left",9,"9.png","15solosesoli.png",0,"SP","UP","SP",0,1,9
"598",9818115,"competition","trial",3023,13,"left",15,"15.png","15solosesoli.png",0,"SP","UP","SP",0,0,15
"599",9818115,"competition","trial",1518,14,"left",8,"15solosesoli.png","8.png",0,"UP","SP","UP",1,1,10.188679245283
"600",9818115,"competition","trial",1355,15,"left",5,"15solosesoli.png","5.png",0,"UP","SP","UP",1,0,8.63207547169811
"601",9818115,"coordination","trial",1901,1,"left",5,"15soloseinsieme.png","5.png",0,"UP","SP","UP",1,0,13.8679245283019
"602",9818115,"coordination","trial",748,2,"right",4,"4.png","15soloseinsieme.png",0,"SP","UP","UP",1,0,13.8679245283019
"603",9818115,"coordination","trial",925.000000000029,3,"right",10,"10.png","15soloseinsieme.png",0,"SP","UP","UP",1,0,7.78301886792453
"604",9818115,"coordination","trial",2827,4,"left",11,"15soloseinsieme.png","11.png",0,"UP","SP","UP",1,0,7.21698113207547
"605",9818115,"coordination","trial",4321,5,"right",7,"7.png","15soloseinsieme.png",0,"SP","UP","UP",1,0,11.6037735849057
"606",9818115,"coordination","trial",1137,6,"right",14,"15soloseinsieme.png","14.png",0,"UP","SP","SP",0,0,14
"607",9818115,"coordination","trial",1256,7,"left",13,"13.png","15soloseinsieme.png",0,"SP","UP","SP",0,1,13
"608",9818115,"coordination","trial",1104,8,"right",3,"3.png","15soloseinsieme.png",0,"SP","UP","UP",1,0,14.0094339622642
"609",9818115,"coordination","trial",1893,9,"left",9,"15soloseinsieme.png","9.png",0,"UP","SP","UP",1,0,10.0471698113208
"610",9818115,"coordination","trial",1141,10,"right",8,"8.png","15soloseinsieme.png",0,"SP","UP","UP",1,0,10.8962264150943
"611",9818115,"coordination","trial",1010,11,"left",2,"15soloseinsieme.png","2.png",0,"UP","SP","UP",1,0,14.4339622641509
"612",9818115,"coordination","trial",837,12,"left",12,"15soloseinsieme.png","12.png",0,"UP","SP","UP",1,0,7.07547169811321
"613",9818115,"coordination","trial",1068,13,"right",6,"6.png","15soloseinsieme.png",0,"SP","UP","UP",1,0,13.0188679245283
"614",9818115,"coordination","trial",898,14,"left",1,"15soloseinsieme.png","1.png",0,"UP","SP","UP",1,NA,14.4339622641509
"615",9818115,"coordination","trial",2932.00000000003,15,"left",15,"15.png","15soloseinsieme.png",0,"SP","UP","SP",0,0,15
"616",9818115,"lottery","trial",2082,1,"left",13,"13.png","15soloseacaso.png",0,"SP","UP","SP",0,0,13
"617",9818115,"lottery","trial",2735,2,"right",8,"15soloseacaso.png","8.png",0,"UP","SP","SP",0,1,8
"618",9818115,"lottery","trial",1276,3,"left",11,"11.png","15soloseacaso.png",0,"SP","UP","SP",0,0,11
"619",9818115,"lottery","trial",1825,4,"right",7,"7.png","15soloseacaso.png",0,"SP","UP","UP",1,1,7.5
"620",9818115,"lottery","trial",1428,5,"left",1,"15soloseacaso.png","1.png",0,"UP","SP","UP",1,NA,7.5
"621",9818115,"lottery","trial",2381,6,"left",3,"15soloseacaso.png","3.png",0,"UP","SP","UP",1,0,7.5
"622",9818115,"lottery","trial",1206,7,"right",2,"2.png","15soloseacaso.png",0,"SP","UP","UP",1,0,7.5
"623",9818115,"lottery","trial",1511,8,"left",15,"15.png","15soloseacaso.png",0,"SP","UP","SP",0,0,15
"624",9818115,"lottery","trial",3608,9,"right",6,"15soloseacaso.png","6.png",0,"UP","SP","SP",0,1,6
"625",9818115,"lottery","trial",1306,10,"right",4,"4.png","15soloseacaso.png",0,"SP","UP","UP",1,0,7.5
"626",9818115,"lottery","trial",1193,11,"right",5,"5.png","15soloseacaso.png",0,"SP","UP","UP",1,0,7.5
"627",9818115,"lottery","trial",2120,12,"right",10,"15soloseacaso.png","10.png",0,"UP","SP","SP",0,0,10
"628",9818115,"lottery","trial",1452.00000000003,13,"right",9,"15soloseacaso.png","9.png",0,"UP","SP","SP",0,0,9
"629",9818115,"lottery","trial",1049.00000000003,14,"left",12,"12.png","15soloseacaso.png",0,"SP","UP","SP",0,0,12
"630",9818115,"lottery","trial",953,15,"left",14,"14.png","15soloseacaso.png",0,"SP","UP","SP",0,0,14
"631",9818114,"competition","trial",3863.057,1,"left",5,"5.png","15solosesoli.png",0,"SP","UP","SP",0,0,5
"632",9818114,"competition","trial",6686.60600009537,2,"right",2,"15solosesoli.png","2.png",0,"UP","SP","SP",0,0,2
"633",9818114,"competition","trial",2371.709,3,"left",4,"4.png","15solosesoli.png",0,"SP","UP","SP",0,0,4
"634",9818114,"competition","trial",1941.51200004768,4,"right",6,"15solosesoli.png","6.png",0,"UP","SP","SP",0,0,6
"635",9818114,"competition","trial",1547.29600007152,5,"left",9,"9.png","15solosesoli.png",0,"SP","UP","SP",0,0,9
"636",9818114,"competition","trial",1552.52900004768,6,"left",14,"14.png","15solosesoli.png",0,"SP","UP","SP",0,0,14
"637",9818114,"competition","trial",9860.88400004768,7,"right",1,"15solosesoli.png","1.png",0,"UP","SP","SP",0,NA,1
"638",9818114,"competition","trial",5315.80999999998,8,"left",8,"8.png","15solosesoli.png",0,"SP","UP","SP",0,0,8
"639",9818114,"competition","trial",4385.65600009536,9,"right",15,"15solosesoli.png","15.png",0,"UP","SP","SP",0,0,15
"640",9818114,"competition","trial",3247.14000004769,10,"right",13,"15solosesoli.png","13.png",0,"UP","SP","SP",0,0,13
"641",9818114,"competition","trial",3079.33300004769,11,"left",7,"7.png","15solosesoli.png",0,"SP","UP","SP",0,0,7
"642",9818114,"competition","trial",1323.03800004769,12,"right",10,"15solosesoli.png","10.png",0,"UP","SP","SP",0,0,10
"643",9818114,"competition","trial",1653.78600009537,13,"right",11,"15solosesoli.png","11.png",0,"UP","SP","SP",0,0,11
"644",9818114,"competition","trial",2830.41900004768,14,"left",12,"12.png","15solosesoli.png",0,"SP","UP","SP",0,0,12
"645",9818114,"competition","trial",2288.27400004768,15,"left",3,"3.png","15solosesoli.png",0,"SP","UP","SP",0,0,3
"646",9818114,"coordination","trial",3602.33200004768,1,"left",1,"15soloseinsieme.png","1.png",0,"UP","SP","UP",1,NA,14.4339622641509
"647",9818114,"coordination","trial",1986.40600004769,2,"left",9,"15soloseinsieme.png","9.png",0,"UP","SP","UP",1,0,10.0471698113208
"648",9818114,"coordination","trial",1059.106,3,"left",5,"15soloseinsieme.png","5.png",0,"UP","SP","UP",1,0,13.8679245283019
"649",9818114,"coordination","trial",2898.57900004768,4,"left",12,"15soloseinsieme.png","12.png",0,"UP","SP","UP",1,0,7.07547169811321
"650",9818114,"coordination","trial",1199.257,5,"right",3,"3.png","15soloseinsieme.png",0,"SP","UP","UP",1,0,14.0094339622642
"651",9818114,"coordination","trial",6452.09700007153,6,"right",15,"15soloseinsieme.png","15.png",0,"UP","SP","SP",0,0,15
"652",9818114,"coordination","trial",1266.67,7,"left",2,"15soloseinsieme.png","2.png",0,"UP","SP","UP",1,0,14.4339622641509
"653",9818114,"coordination","trial",645.876000071527,8,"left",4,"15soloseinsieme.png","4.png",0,"UP","SP","UP",1,0,13.8679245283019
"654",9818114,"coordination","trial",760.453000047681,9,"left",7,"15soloseinsieme.png","7.png",0,"UP","SP","UP",1,0,11.6037735849057
"655",9818114,"coordination","trial",1315.99400000001,10,"right",6,"6.png","15soloseinsieme.png",0,"SP","UP","UP",1,0,13.0188679245283
"656",9818114,"coordination","trial",5682.07100000001,11,"right",13,"15soloseinsieme.png","13.png",0,"UP","SP","SP",0,1,13
"657",9818114,"coordination","trial",1949.59299999999,12,"left",8,"15soloseinsieme.png","8.png",0,"UP","SP","UP",1,0,10.8962264150943
"658",9818114,"coordination","trial",1729.64500002384,13,"right",14,"15soloseinsieme.png","14.png",0,"UP","SP","SP",0,0,14
"659",9818114,"coordination","trial",1497.58900009538,14,"left",10,"15soloseinsieme.png","10.png",0,"UP","SP","UP",1,0,7.78301886792453
"660",9818114,"coordination","trial",886.592000047676,15,"left",11,"15soloseinsieme.png","11.png",0,"UP","SP","UP",1,0,7.21698113207547
"661",9818114,"lottery","trial",4033.21100000001,1,"right",9,"15soloseacaso.png","9.png",0,"UP","SP","SP",0,0,9
"662",9818114,"lottery","trial",2061.72700007152,2,"right",3,"3.png","15soloseacaso.png",0,"SP","UP","UP",1,0,7.5
"663",9818114,"lottery","trial",4836.91900007153,3,"left",6,"6.png","15soloseacaso.png",0,"SP","UP","SP",0,0,6
"664",9818114,"lottery","trial",1830.43000007153,4,"left",4,"15soloseacaso.png","4.png",0,"UP","SP","UP",1,0,7.5
"665",9818114,"lottery","trial",1074.52100007152,5,"left",11,"11.png","15soloseacaso.png",0,"SP","UP","SP",0,0,11
"666",9818114,"lottery","trial",953.903000071528,6,"left",12,"12.png","15soloseacaso.png",0,"SP","UP","SP",0,0,12
"667",9818114,"lottery","trial",702.156000047689,7,"left",14,"14.png","15soloseacaso.png",0,"SP","UP","SP",0,0,14
"668",9818114,"lottery","trial",653.096000095364,8,"left",13,"13.png","15soloseacaso.png",0,"SP","UP","SP",0,0,13
"669",9818114,"lottery","trial",6605.30000009536,9,"right",5,"15soloseacaso.png","5.png",0,"UP","SP","SP",0,1,5
"670",9818114,"lottery","trial",1885.31900007153,10,"left",8,"8.png","15soloseacaso.png",0,"SP","UP","SP",0,0,8
"671",9818114,"lottery","trial",1235.17000007152,11,"right",7,"15soloseacaso.png","7.png",0,"UP","SP","SP",0,0,7
"672",9818114,"lottery","trial",1536.46200009537,12,"left",1,"15soloseacaso.png","1.png",0,"UP","SP","UP",1,NA,7.5
"673",9818114,"lottery","trial",1322.83600009535,13,"left",2,"15soloseacaso.png","2.png",0,"UP","SP","UP",1,0,7.5
"674",9818114,"lottery","trial",1672.06,14,"right",10,"15soloseacaso.png","10.png",0,"UP","SP","SP",0,0,10
"675",9818114,"lottery","trial",1682.74100000001,15,"left",15,"15.png","15soloseacaso.png",0,"SP","UP","SP",0,0,15
"676",9818113,"coordination","trial",8536.00000000001,1,"left",12,"15soloseinsieme.png","12.png",0,"UP","SP","UP",1,0,7.07547169811321
"677",9818113,"coordination","trial",2606,2,"left",7,"15soloseinsieme.png","7.png",0,"UP","SP","UP",1,0,11.6037735849057
"678",9818113,"coordination","trial",3254,3,"right",6,"6.png","15soloseinsieme.png",0,"SP","UP","UP",1,0,13.0188679245283
"679",9818113,"coordination","trial",5971,4,"right",14,"15soloseinsieme.png","14.png",0,"UP","SP","SP",0,1,14
"680",9818113,"coordination","trial",2068,5,"left",8,"15soloseinsieme.png","8.png",0,"UP","SP","UP",1,0,10.8962264150943
"681",9818113,"coordination","trial",7107,6,"right",15,"15soloseinsieme.png","15.png",0,"UP","SP","SP",0,0,15
"682",9818113,"coordination","trial",2688,7,"right",11,"11.png","15soloseinsieme.png",0,"SP","UP","UP",1,0,7.21698113207547
"683",9818113,"coordination","trial",5504,8,"right",13,"13.png","15soloseinsieme.png",0,"SP","UP","UP",1,0,5.94339622641509
"684",9818113,"coordination","trial",1653,9,"left",4,"15soloseinsieme.png","4.png",0,"UP","SP","UP",1,0,13.8679245283019
"685",9818113,"coordination","trial",1387,10,"right",1,"1.png","15soloseinsieme.png",0,"SP","UP","UP",1,NA,14.4339622641509
"686",9818113,"coordination","trial",1571,11,"right",5,"5.png","15soloseinsieme.png",0,"SP","UP","UP",1,0,13.8679245283019
"687",9818113,"coordination","trial",1220,12,"left",9,"15soloseinsieme.png","9.png",0,"UP","SP","UP",1,0,10.0471698113208
"688",9818113,"coordination","trial",1237,13,"right",2,"2.png","15soloseinsieme.png",0,"SP","UP","UP",1,0,14.4339622641509
"689",9818113,"coordination","trial",1220,14,"left",10,"15soloseinsieme.png","10.png",0,"UP","SP","UP",1,0,7.78301886792453
"690",9818113,"coordination","trial",2904.00000000001,15,"right",3,"3.png","15soloseinsieme.png",0,"SP","UP","UP",1,0,14.0094339622642
"691",9818113,"competition","trial",6154,1,"right",8,"15solosesoli.png","8.png",0,"UP","SP","SP",0,0,8
"692",9818113,"competition","trial",2554,2,"right",7,"15solosesoli.png","7.png",0,"UP","SP","SP",0,0,7
"693",9818113,"competition","trial",3154,3,"right",6,"15solosesoli.png","6.png",0,"UP","SP","SP",0,0,6
"694",9818113,"competition","trial",3738,4,"left",10,"10.png","15solosesoli.png",0,"SP","UP","SP",0,0,10
"695",9818113,"competition","trial",2404,5,"left",14,"14.png","15solosesoli.png",0,"SP","UP","SP",0,0,14
"696",9818113,"competition","trial",1271,6,"right",11,"15solosesoli.png","11.png",0,"UP","SP","SP",0,0,11
"697",9818113,"competition","trial",1237,7,"right",9,"15solosesoli.png","9.png",0,"UP","SP","SP",0,0,9
"698",9818113,"competition","trial",1936,8,"left",15,"15.png","15solosesoli.png",0,"SP","UP","SP",0,0,15
"699",9818113,"competition","trial",1671,9,"left",4,"4.png","15solosesoli.png",0,"SP","UP","SP",0,0,4
"700",9818113,"competition","trial",1534,10,"right",13,"15solosesoli.png","13.png",0,"UP","SP","SP",0,0,13
"701",9818113,"competition","trial",2571.00000000003,11,"right",1,"1.png","15solosesoli.png",0,"SP","UP","UP",1,NA,6.36792452830189
"702",9818113,"competition","trial",8326.00000000003,12,"left",3,"3.png","15solosesoli.png",0,"SP","UP","SP",0,0,3
"703",9818113,"competition","trial",954,13,"left",5,"5.png","15solosesoli.png",0,"SP","UP","SP",0,0,5
"704",9818113,"competition","trial",5254,14,"left",12,"12.png","15solosesoli.png",0,"SP","UP","SP",0,0,12
"705",9818113,"competition","trial",1171.00000000003,15,"right",2,"15solosesoli.png","2.png",0,"UP","SP","SP",0,1,2
"706",9818113,"lottery","trial",2304,1,"left",15,"15.png","15soloseacaso.png",0,"SP","UP","SP",0,0,15
"707",9818113,"lottery","trial",1772,2,"left",14,"14.png","15soloseacaso.png",0,"SP","UP","SP",0,0,14
"708",9818113,"lottery","trial",4723,3,"right",2,"2.png","15soloseacaso.png",0,"SP","UP","UP",1,0,7.5
"709",9818113,"lottery","trial",2621,4,"left",1,"15soloseacaso.png","1.png",0,"UP","SP","UP",1,NA,7.5
"710",9818113,"lottery","trial",3471,5,"left",9,"9.png","15soloseacaso.png",0,"SP","UP","SP",0,0,9
"711",9818113,"lottery","trial",1204,6,"right",10,"15soloseacaso.png","10.png",0,"UP","SP","SP",0,0,10
"712",9818113,"lottery","trial",1704,7,"right",6,"15soloseacaso.png","6.png",0,"UP","SP","SP",0,0,6
"713",9818113,"lottery","trial",6087,8,"right",5,"15soloseacaso.png","5.png",0,"UP","SP","SP",0,0,5
"714",9818113,"lottery","trial",3187.00000000003,9,"left",4,"4.png","15soloseacaso.png",0,"SP","UP","SP",0,1,4
"715",9818113,"lottery","trial",854.000000000029,10,"left",7,"7.png","15soloseacaso.png",0,"SP","UP","SP",0,0,7
"716",9818113,"lottery","trial",1154,11,"right",13,"15soloseacaso.png","13.png",0,"UP","SP","SP",0,0,13
"717",9818113,"lottery","trial",4971,12,"left",8,"8.png","15soloseacaso.png",0,"SP","UP","SP",0,0,8
"718",9818113,"lottery","trial",1070,13,"left",12,"12.png","15soloseacaso.png",0,"SP","UP","SP",0,0,12
"719",9818113,"lottery","trial",1337,14,"right",11,"15soloseacaso.png","11.png",0,"UP","SP","SP",0,0,11
"720",9818113,"lottery","trial",2520,15,"right",3,"3.png","15soloseacaso.png",0,"SP","UP","UP",1,0,7.5
"721",9818111,"lottery","trial",4257,1,"right",15,"15soloseacaso.png","15.png",0,"UP","SP","SP",0,0,15
"722",9818111,"lottery","trial",5289,2,"left",2,"2.png","15soloseacaso.png",0,"SP","UP","SP",0,1,2
"723",9818111,"lottery","trial",1589,3,"left",7,"7.png","15soloseacaso.png",0,"SP","UP","SP",0,1,7
"724",9818111,"lottery","trial",1199,4,"right",11,"15soloseacaso.png","11.png",0,"UP","SP","SP",0,0,11
"725",9818111,"lottery","trial",1566,5,"left",12,"12.png","15soloseacaso.png",0,"SP","UP","SP",0,0,12
"726",9818111,"lottery","trial",1232,6,"left",13,"13.png","15soloseacaso.png",0,"SP","UP","SP",0,0,13
"727",9818111,"lottery","trial",990,7,"right",14,"15soloseacaso.png","14.png",0,"UP","SP","SP",0,0,14
"728",9818111,"lottery","trial",933,8,"right",5,"5.png","15soloseacaso.png",0,"SP","UP","UP",1,0,7.5
"729",9818111,"lottery","trial",3322,9,"right",9,"9.png","15soloseacaso.png",0,"SP","UP","UP",1,0,7.5
"730",9818111,"lottery","trial",899,10,"left",10,"10.png","15soloseacaso.png",0,"SP","UP","SP",0,1,10
"731",9818111,"lottery","trial",891,11,"right",6,"6.png","15soloseacaso.png",0,"SP","UP","UP",1,0,7.5
"732",9818111,"lottery","trial",1266,12,"left",1,"15soloseacaso.png","1.png",0,"UP","SP","UP",1,NA,7.5
"733",9818111,"lottery","trial",921,13,"right",3,"3.png","15soloseacaso.png",0,"SP","UP","UP",1,1,7.5
"734",9818111,"lottery","trial",1099,14,"right",8,"8.png","15soloseacaso.png",0,"SP","UP","UP",1,1,7.5
"735",9818111,"lottery","trial",1332,15,"left",4,"15soloseacaso.png","4.png",0,"UP","SP","UP",1,0,7.5
"736",9818111,"competition","trial",6523,1,"right",3,"15solosesoli.png","3.png",0,"UP","SP","SP",0,0,3
"737",9818111,"competition","trial",6321,2,"right",4,"15solosesoli.png","4.png",0,"UP","SP","SP",0,0,4
"738",9818111,"competition","trial",1333,3,"left",12,"15solosesoli.png","12.png",0,"UP","SP","UP",1,0,11.1792452830189
"739",9818111,"competition","trial",7955.00000000001,4,"left",7,"7.png","15solosesoli.png",0,"SP","UP","SP",0,0,7
"740",9818111,"competition","trial",3123.00000000001,5,"right",14,"14.png","15solosesoli.png",0,"SP","UP","UP",1,0,11.6037735849057
"741",9818111,"competition","trial",2223,6,"right",11,"11.png","15solosesoli.png",0,"SP","UP","UP",1,0,11.1792452830189
"742",9818111,"competition","trial",1534,7,"right",6,"15solosesoli.png","6.png",0,"UP","SP","SP",0,0,6
"743",9818111,"competition","trial",1132,8,"left",5,"5.png","15solosesoli.png",0,"SP","UP","SP",0,0,5
"744",9818111,"competition","trial",2156,9,"right",8,"15solosesoli.png","8.png",0,"UP","SP","SP",0,0,8
"745",9818111,"competition","trial",1822,10,"left",9,"9.png","15solosesoli.png",0,"SP","UP","SP",0,0,9
"746",9818111,"competition","trial",2299,11,"right",10,"10.png","15solosesoli.png",0,"SP","UP","UP",1,1,11.3207547169811
"747",9818111,"competition","trial",1199,12,"right",13,"13.png","15solosesoli.png",0,"SP","UP","UP",1,0,11.4622641509434
"748",9818111,"competition","trial",1932,13,"right",1,"15solosesoli.png","1.png",0,"UP","SP","SP",0,NA,1
"749",9818111,"competition","trial",1123,14,"left",15,"15.png","15solosesoli.png",0,"SP","UP","SP",0,1,15
"750",9818111,"competition","trial",5531,15,"left",2,"2.png","15solosesoli.png",0,"SP","UP","SP",0,0,2
"751",9818111,"coordination","trial",866,1,"right",12,"12.png","15soloseinsieme.png",0,"SP","UP","UP",1,1,7.07547169811321
"752",9818111,"coordination","trial",956,2,"right",7,"7.png","15soloseinsieme.png",0,"SP","UP","UP",1,0,11.6037735849057
"753",9818111,"coordination","trial",1332,3,"right",9,"9.png","15soloseinsieme.png",0,"SP","UP","UP",1,0,10.0471698113208
"754",9818111,"coordination","trial",1001,4,"left",13,"13.png","15soloseinsieme.png",0,"SP","UP","SP",0,1,13
"755",9818111,"coordination","trial",1601,5,"left",1,"15soloseinsieme.png","1.png",0,"UP","SP","UP",1,NA,14.4339622641509
"756",9818111,"coordination","trial",1056,6,"left",4,"15soloseinsieme.png","4.png",0,"UP","SP","UP",1,0,13.8679245283019
"757",9818111,"coordination","trial",1090.00000000001,7,"left",14,"14.png","15soloseinsieme.png",0,"SP","UP","SP",0,0,14
"758",9818111,"coordination","trial",1024.00000000001,8,"left",3,"15soloseinsieme.png","3.png",0,"UP","SP","UP",1,0,14.0094339622642
"759",9818111,"coordination","trial",1134,9,"right",15,"15soloseinsieme.png","15.png",0,"UP","SP","SP",0,0,15
"760",9818111,"coordination","trial",1200,10,"left",6,"15soloseinsieme.png","6.png",0,"UP","SP","UP",1,0,13.0188679245283
"761",9818111,"coordination","trial",2400,11,"left",10,"10.png","15soloseinsieme.png",0,"SP","UP","SP",0,1,10
"762",9818111,"coordination","trial",1556,12,"right",5,"5.png","15soloseinsieme.png",0,"SP","UP","UP",1,0,13.8679245283019
"763",9818111,"coordination","trial",2356,13,"left",11,"11.png","15soloseinsieme.png",0,"SP","UP","SP",0,0,11
"764",9818111,"coordination","trial",2457,14,"right",2,"2.png","15soloseinsieme.png",0,"SP","UP","UP",1,0,14.4339622641509
"765",9818111,"coordination","trial",1356,15,"right",8,"8.png","15soloseinsieme.png",0,"SP","UP","UP",1,0,10.8962264150943
"766",9818109,"coordination","trial",9279.02200000019,1,"left",6,"6.png","15soloseinsieme.png",0,"SP","UP","SP",0,0,6
"767",9818109,"coordination","trial",2504.28899999991,2,"left",7,"7.png","15soloseinsieme.png",0,"SP","UP","SP",0,0,7
"768",9818109,"coordination","trial",2558.39500000009,3,"left",13,"13.png","15soloseinsieme.png",0,"SP","UP","SP",0,0,13
"769",9818109,"coordination","trial",8000.719,4,"left",15,"15.png","15soloseinsieme.png",0,"SP","UP","SP",0,0,15
"770",9818109,"coordination","trial",2011.63799999982,5,"left",10,"10.png","15soloseinsieme.png",0,"SP","UP","SP",0,0,10
"771",9818109,"coordination","trial",2282.341,6,"left",12,"12.png","15soloseinsieme.png",0,"SP","UP","SP",0,0,12
"772",9818109,"coordination","trial",2144.86000000019,7,"left",14,"14.png","15soloseinsieme.png",0,"SP","UP","SP",0,0,14
"773",9818109,"coordination","trial",4209.99000000001,8,"right",3,"15soloseinsieme.png","3.png",0,"UP","SP","SP",0,0,3
"774",9818109,"coordination","trial",13340.9520000002,9,"left",9,"9.png","15soloseinsieme.png",1,"SP","UP","SP",0,0,9
"775",9818109,"coordination","trial",1434.656,10,"left",8,"8.png","15soloseinsieme.png",0,"SP","UP","SP",0,0,8
"776",9818109,"coordination","trial",1349.204,11,"left",4,"4.png","15soloseinsieme.png",0,"SP","UP","SP",0,0,4
"777",9818109,"coordination","trial",2040.459,12,"left",2,"2.png","15soloseinsieme.png",0,"SP","UP","SP",0,0,2
"778",9818109,"coordination","trial",1387.66299999981,13,"right",5,"15soloseinsieme.png","5.png",0,"UP","SP","SP",0,0,5
"779",9818109,"coordination","trial",3797.13199999981,14,"right",1,"15soloseinsieme.png","1.png",0,"UP","SP","SP",0,NA,1
"780",9818109,"coordination","trial",4418.14299999998,15,"left",11,"11.png","15soloseinsieme.png",0,"SP","UP","SP",0,0,11
"781",9818109,"lottery","trial",8536.89100000038,1,"right",7,"7.png","15soloseacaso.png",0,"SP","UP","UP",1,1,7.5
"782",9818109,"lottery","trial",2189.55000000037,2,"right",2,"2.png","15soloseacaso.png",0,"SP","UP","UP",1,0,7.5
"783",9818109,"lottery","trial",2293.1299999998,3,"left",15,"15.png","15soloseacaso.png",0,"SP","UP","SP",0,0,15
"784",9818109,"lottery","trial",3272.245,4,"left",6,"6.png","15soloseacaso.png",0,"SP","UP","SP",0,1,6
"785",9818109,"lottery","trial",1479.33499999999,5,"left",13,"13.png","15soloseacaso.png",0,"SP","UP","SP",0,0,13
"786",9818109,"lottery","trial",2256.15399999981,6,"right",8,"15soloseacaso.png","8.png",0,"UP","SP","SP",0,1,8
"787",9818109,"lottery","trial",2682.663,7,"right",1,"1.png","15soloseacaso.png",0,"SP","UP","UP",1,NA,7.5
"788",9818109,"lottery","trial",1798.33100000001,8,"left",9,"9.png","15soloseacaso.png",0,"SP","UP","SP",0,0,9
"789",9818109,"lottery","trial",1670.16099999999,9,"right",12,"15soloseacaso.png","12.png",0,"UP","SP","SP",0,0,12
"790",9818109,"lottery","trial",3454.99400000001,10,"right",5,"5.png","15soloseacaso.png",0,"SP","UP","UP",1,1,7.5
"791",9818109,"lottery","trial",1411.60799999963,11,"right",11,"15soloseacaso.png","11.png",0,"UP","SP","SP",0,0,11
"792",9818109,"lottery","trial",1813.87800000038,12,"left",3,"15soloseacaso.png","3.png",0,"UP","SP","UP",1,0,7.5
"793",9818109,"lottery","trial",1315.03,13,"left",14,"14.png","15soloseacaso.png",0,"SP","UP","SP",0,0,14
"794",9818109,"lottery","trial",1662.68900000019,14,"right",10,"15soloseacaso.png","10.png",0,"UP","SP","SP",0,0,10
"795",9818109,"lottery","trial",4190.198,15,"right",4,"15soloseacaso.png","4.png",0,"UP","SP","SP",0,1,4
"796",9818109,"competition","trial",4355.64299999981,1,"left",15,"15.png","15solosesoli.png",0,"SP","UP","SP",0,0,15
"797",9818109,"competition","trial",12111.7290000004,2,"right",5,"15solosesoli.png","5.png",0,"UP","SP","SP",0,0,5
"798",9818109,"competition","trial",6577.52700000018,3,"right",9,"15solosesoli.png","9.png",0,"UP","SP","SP",0,0,9
"799",9818109,"competition","trial",8106.15900000001,4,"right",10,"10.png","15solosesoli.png",0,"SP","UP","UP",1,1,11.3207547169811
"800",9818109,"competition","trial",2163.95899999983,5,"right",7,"15solosesoli.png","7.png",0,"UP","SP","SP",0,0,7
"801",9818109,"competition","trial",7675.05900000039,6,"right",11,"11.png","15solosesoli.png",0,"SP","UP","UP",1,0,11.1792452830189
"802",9818109,"competition","trial",2093.10699999999,7,"left",8,"8.png","15solosesoli.png",0,"SP","UP","SP",0,0,8
"803",9818109,"competition","trial",9057.4559999998,8,"left",1,"1.png","15solosesoli.png",0,"SP","UP","SP",0,NA,1
"804",9818109,"competition","trial",1706.26599999962,9,"left",3,"3.png","15solosesoli.png",0,"SP","UP","SP",0,0,3
"805",9818109,"competition","trial",1097.55800000037,10,"left",2,"2.png","15solosesoli.png",0,"SP","UP","SP",0,0,2
"806",9818109,"competition","trial",1766.70600000003,11,"right",4,"15solosesoli.png","4.png",0,"UP","SP","SP",0,0,4
"807",9818109,"competition","trial",7547.18400000018,12,"left",14,"14.png","15solosesoli.png",0,"SP","UP","SP",0,0,14
"808",9818109,"competition","trial",7299.6820000002,13,"left",13,"13.png","15solosesoli.png",0,"SP","UP","SP",0,0,13
"809",9818109,"competition","trial",2864.26299999963,14,"left",6,"6.png","15solosesoli.png",0,"SP","UP","SP",0,0,6
"810",9818109,"competition","trial",1684.67300000007,15,"right",12,"15solosesoli.png","12.png",0,"UP","SP","SP",0,1,12
"811",9818108,"lottery","trial",10679,1,"right",11,"15soloseacaso.png","11.png",0,"UP","SP","SP",0,0,11
"812",9818108,"lottery","trial",15048,2,"left",6,"6.png","15soloseacaso.png",1,"SP","UP","SP",0,1,6
"813",9818108,"lottery","trial",5361,3,"right",8,"15soloseacaso.png","8.png",0,"UP","SP","SP",0,1,8
"814",9818108,"lottery","trial",4189,4,"right",1,"1.png","15soloseacaso.png",0,"SP","UP","UP",1,NA,7.5
"815",9818108,"lottery","trial",3729,5,"right",4,"4.png","15soloseacaso.png",0,"SP","UP","UP",1,1,7.5
"816",9818108,"lottery","trial",1984,6,"left",10,"10.png","15soloseacaso.png",0,"SP","UP","SP",0,1,10
"817",9818108,"lottery","trial",5628,7,"left",7,"15soloseacaso.png","7.png",0,"UP","SP","UP",1,1,7.5
"818",9818108,"lottery","trial",2110,8,"left",12,"12.png","15soloseacaso.png",0,"SP","UP","SP",0,0,12
"819",9818108,"lottery","trial",7629,9,"right",13,"15soloseacaso.png","13.png",0,"UP","SP","SP",0,0,13
"820",9818108,"lottery","trial",3256.00000000001,10,"left",9,"15soloseacaso.png","9.png",0,"UP","SP","UP",1,1,7.5
"821",9818108,"lottery","trial",3410,11,"left",14,"14.png","15soloseacaso.png",0,"SP","UP","SP",0,0,14
"822",9818108,"lottery","trial",1750,12,"right",5,"5.png","15soloseacaso.png",0,"SP","UP","UP",1,0,7.5
"823",9818108,"lottery","trial",6404,13,"left",2,"15soloseacaso.png","2.png",0,"UP","SP","UP",1,0,7.5
"824",9818108,"lottery","trial",3497,14,"right",15,"15soloseacaso.png","15.png",0,"UP","SP","SP",0,0,15
"825",9818108,"lottery","trial",3458,15,"right",3,"15soloseacaso.png","3.png",0,"UP","SP","SP",0,1,3
"826",9818108,"competition","trial",29274,1,"left",8,"8.png","15solosesoli.png",1,"SP","UP","SP",0,0,8
"827",9818108,"competition","trial",10099,2,"right",5,"5.png","15solosesoli.png",0,"SP","UP","UP",1,0,8.63207547169811
"828",9818108,"competition","trial",3562.00000000003,3,"left",12,"12.png","15solosesoli.png",0,"SP","UP","SP",0,0,12
"829",9818108,"competition","trial",6343,4,"right",15,"15solosesoli.png","15.png",0,"UP","SP","SP",0,1,15
"830",9818108,"competition","trial",6419,5,"left",14,"15solosesoli.png","14.png",0,"UP","SP","UP",1,1,11.6037735849057
"831",9818108,"competition","trial",2605,6,"left",6,"6.png","15solosesoli.png",0,"SP","UP","SP",0,1,6
"832",9818108,"competition","trial",4540,7,"left",2,"2.png","15solosesoli.png",0,"SP","UP","SP",0,0,2
"833",9818108,"competition","trial",12194,8,"right",9,"15solosesoli.png","9.png",0,"UP","SP","SP",0,0,9
"834",9818108,"competition","trial",4254,9,"left",4,"15solosesoli.png","4.png",0,"UP","SP","UP",1,0,7.21698113207547
"835",9818108,"competition","trial",4343,10,"left",11,"11.png","15solosesoli.png",0,"SP","UP","SP",0,0,11
"836",9818108,"competition","trial",6371,11,"left",10,"10.png","15solosesoli.png",0,"SP","UP","SP",0,0,10
"837",9818108,"competition","trial",3888,12,"right",3,"3.png","15solosesoli.png",0,"SP","UP","UP",1,1,6.36792452830189
"838",9818108,"competition","trial",2783,13,"right",7,"15solosesoli.png","7.png",0,"UP","SP","SP",0,0,7
"839",9818108,"competition","trial",2339,14,"left",13,"13.png","15solosesoli.png",0,"SP","UP","SP",0,0,13
"840",9818108,"competition","trial",15523,15,"left",1,"1.png","15solosesoli.png",1,"SP","UP","SP",0,NA,1
"841",9818108,"coordination","trial",4457,1,"left",10,"15soloseinsieme.png","10.png",0,"UP","SP","UP",1,1,7.78301886792453
"842",9818108,"coordination","trial",1802,2,"left",6,"15soloseinsieme.png","6.png",0,"UP","SP","UP",1,0,13.0188679245283
"843",9818108,"coordination","trial",1553.00000000006,3,"right",14,"15soloseinsieme.png","14.png",0,"UP","SP","SP",0,0,14
"844",9818108,"coordination","trial",7658,4,"left",15,"15soloseinsieme.png","15.png",0,"UP","SP","UP",1,1,3.82075471698113
"845",9818108,"coordination","trial",3252.00000000006,5,"right",1,"1.png","15soloseinsieme.png",0,"SP","UP","UP",1,NA,14.4339622641509
"846",9818108,"coordination","trial",1709,6,"right",13,"15soloseinsieme.png","13.png",0,"UP","SP","SP",0,0,13
"847",9818108,"coordination","trial",2461,7,"left",8,"15soloseinsieme.png","8.png",0,"UP","SP","UP",1,0,10.8962264150943
"848",9818108,"coordination","trial",1263.00000000006,8,"right",7,"7.png","15soloseinsieme.png",0,"SP","UP","UP",1,0,11.6037735849057
"849",9818108,"coordination","trial",1648,9,"right",2,"2.png","15soloseinsieme.png",0,"SP","UP","UP",1,0,14.4339622641509
"850",9818108,"coordination","trial",1235,10,"right",12,"15soloseinsieme.png","12.png",0,"UP","SP","SP",0,0,12
"851",9818108,"coordination","trial",1251,11,"left",5,"15soloseinsieme.png","5.png",0,"UP","SP","UP",1,0,13.8679245283019
"852",9818108,"coordination","trial",1576.00000000006,12,"left",4,"15soloseinsieme.png","4.png",0,"UP","SP","UP",1,0,13.8679245283019
"853",9818108,"coordination","trial",1120,13,"right",11,"15soloseinsieme.png","11.png",0,"UP","SP","SP",0,1,11
"854",9818108,"coordination","trial",1726,14,"right",3,"3.png","15soloseinsieme.png",0,"SP","UP","UP",1,0,14.0094339622642
"855",9818108,"coordination","trial",1891,15,"right",9,"15soloseinsieme.png","9.png",0,"UP","SP","SP",0,1,9
"856",9818107,"competition","trial",11239.164,1,"left",12,"15solosesoli.png","12.png",0,"UP","SP","UP",1,0,11.1792452830189
