"","sub","game","Screen","rt","trial","Object.Name","sp","left.column","right.column","rt.out","left.response","right.response","answer","response","switch","payoff"
"7",10933689,"competition","trial",5800.2,1,"left",3,"15solosesoli.png","3.png",0,"UP","SP","UP",1,1,3.22429906542056
"9",10933689,"competition","trial",9676,2,"right",15,"15solosesoli.png","15.png",1,"UP","SP","SP",0,0,15
"11",10933689,"competition","trial",15844.700000143,3,"left",10,"15solosesoli.png","10.png",1,"UP","SP","UP",1,0,8.83177570093458
"13",10933689,"competition","trial",2674.69999995232,4,"left",9,"15solosesoli.png","9.png",0,"UP","SP","UP",1,0,6.72897196261682
"15",10933689,"competition","trial",1274.70000014305,5,"left",4,"15solosesoli.png","4.png",0,"UP","SP","UP",1,0,4.76635514018692
"17",10933689,"competition","trial",1183.3,6,"left",5,"15solosesoli.png","5.png",0,"UP","SP","UP",1,0,4.34579439252336
"19",10933689,"competition","trial",1093.20000009537,7,"left",8,"15solosesoli.png","8.png",0,"UP","SP","UP",1,0,5.88785046728972
"21",10933689,"competition","trial",1419.59999995232,8,"left",7,"15solosesoli.png","7.png",0,"UP","SP","UP",1,0,5.46728971962617
"23",10933689,"competition","trial",1429.20000009537,9,"right",11,"15solosesoli.png","11.png",0,"UP","SP","SP",0,1,11
"25",10933689,"competition","trial",1945.10000014305,10,"left",6,"15solosesoli.png","6.png",0,"UP","SP","UP",1,0,5.74766355140187
"27",10933689,"competition","trial",1016.9,11,"left",1,"15solosesoli.png","1.png",0,"UP","SP","UP",1,NA,3.08411214953271
"29",10933689,"competition","trial",1733.50000000001,12,"left",14,"14.png","15solosesoli.png",0,"SP","UP","SP",0,0,14
"31",10933689,"competition","trial",1290.7,13,"left",13,"13.png","15solosesoli.png",0,"SP","UP","SP",0,0,13
"33",10933689,"competition","trial",1181.4,14,"right",12,"15solosesoli.png","12.png",0,"UP","SP","SP",0,0,12
"35",10933689,"competition","trial",843.100000047685,15,"right",2,"15solosesoli.png","2.png",0,"UP","SP","SP",0,1,2
"40",10933689,"lottery","trial",5554.50000014305,1,"left",3,"15soloseacaso.png","3.png",0,"UP","SP","UP",1,0,7.5
"42",10933689,"lottery","trial",2456.20000004768,2,"left",6,"15soloseacaso.png","6.png",0,"UP","SP","UP",1,0,7.5
"44",10933689,"lottery","trial",1165.70000014306,3,"left",11,"15soloseacaso.png","11.png",0,"UP","SP","UP",1,1,7.5
"46",10933689,"lottery","trial",2261.60000009536,4,"right",5,"5.png","15soloseacaso.png",0,"SP","UP","UP",1,0,7.5
"48",10933689,"lottery","trial",862.700000047684,5,"right",1,"1.png","15soloseacaso.png",0,"SP","UP","UP",1,NA,7.5
"50",10933689,"lottery","trial",919.199999999997,6,"right",4,"4.png","15soloseacaso.png",0,"SP","UP","UP",1,0,7.5
"52",10933689,"lottery","trial",971.900000095367,7,"right",14,"15soloseacaso.png","14.png",0,"UP","SP","SP",0,0,14
"54",10933689,"lottery","trial",699.900000143054,8,"right",12,"15soloseacaso.png","12.png",0,"UP","SP","SP",0,1,12
"56",10933689,"lottery","trial",2556.00000014305,9,"right",2,"2.png","15soloseacaso.png",0,"SP","UP","UP",1,0,7.5
"58",10933689,"lottery","trial",938.100000000006,10,"right",7,"7.png","15soloseacaso.png",0,"SP","UP","UP",1,0,7.5
"60",10933689,"lottery","trial",1734.40000014305,11,"right",13,"15soloseacaso.png","13.png",0,"UP","SP","SP",0,0,13
"62",10933689,"lottery","trial",1366,12,"left",15,"15.png","15soloseacaso.png",0,"SP","UP","SP",0,0,15
"64",10933689,"lottery","trial",3936.60000014305,13,"right",9,"15soloseacaso.png","9.png",0,"UP","SP","SP",0,1,9
"66",10933689,"lottery","trial",1303.50000014305,14,"left",8,"15soloseacaso.png","8.png",0,"UP","SP","UP",1,0,7.5
"68",10933689,"lottery","trial",1124.3,15,"right",10,"15soloseacaso.png","10.png",0,"UP","SP","SP",0,0,10
"73",10933689,"coordination","trial",5222.29999995232,1,"left",2,"15soloseinsieme.png","2.png",0,"UP","SP","UP",1,0,9.81308411214953
"75",10933689,"coordination","trial",1467.8,2,"left",1,"15soloseinsieme.png","1.png",0,"UP","SP","UP",1,NA,11.9158878504673
"77",10933689,"coordination","trial",5251.70000004768,3,"right",8,"15soloseinsieme.png","8.png",0,"UP","SP","SP",0,1,8
"79",10933689,"coordination","trial",828.300000000003,4,"right",9,"15soloseinsieme.png","9.png",0,"UP","SP","SP",0,0,9
"81",10933689,"coordination","trial",1142.30000009536,5,"left",7,"15soloseinsieme.png","7.png",0,"UP","SP","UP",1,0,9.53271028037383
"83",10933689,"coordination","trial",846.100000047678,6,"left",4,"15soloseinsieme.png","4.png",0,"UP","SP","UP",1,0,10.2336448598131
"85",10933689,"coordination","trial",1066.09999999999,7,"left",5,"15soloseinsieme.png","5.png",0,"UP","SP","UP",1,0,10.6542056074766
"87",10933689,"coordination","trial",1137.89999995232,8,"left",6,"15soloseinsieme.png","6.png",0,"UP","SP","UP",1,0,9.25233644859813
"89",10933689,"coordination","trial",1405.20000009536,9,"right",15,"15soloseinsieme.png","15.png",0,"UP","SP","SP",0,0,15
"91",10933689,"coordination","trial",1099.60000000001,10,"left",10,"10.png","15soloseinsieme.png",0,"SP","UP","SP",0,0,10
"93",10933689,"coordination","trial",973.899999952322,11,"left",14,"14.png","15soloseinsieme.png",0,"SP","UP","SP",0,0,14
"95",10933689,"coordination","trial",865.300000000017,12,"left",12,"12.png","15soloseinsieme.png",0,"SP","UP","SP",0,0,12
"97",10933689,"coordination","trial",1549.10000000001,13,"right",13,"15soloseinsieme.png","13.png",0,"UP","SP","SP",0,0,13
"99",10933689,"coordination","trial",1663.80000009536,14,"left",3,"15soloseinsieme.png","3.png",0,"UP","SP","UP",1,0,11.7757009345794
"101",10933689,"coordination","trial",1468.10000000001,15,"right",11,"15soloseinsieme.png","11.png",0,"UP","SP","SP",0,0,11
"110",10933690,"competition","trial",3966.8,1,"right",7,"7.png","15solosesoli.png",0,"SP","UP","UP",1,0,5.46728971962617
"112",10933690,"competition","trial",4102.4000002861,2,"left",6,"15solosesoli.png","6.png",0,"UP","SP","UP",1,0,5.74766355140187
"114",10933690,"competition","trial",2666.7,3,"right",8,"15solosesoli.png","8.png",0,"UP","SP","SP",0,1,8
"116",10933690,"competition","trial",1874.20000019074,4,"left",2,"15solosesoli.png","2.png",0,"UP","SP","UP",1,0,5.18691588785047
"118",10933690,"competition","trial",1334,5,"left",12,"12.png","15solosesoli.png",0,"SP","UP","SP",0,0,12
"120",10933690,"competition","trial",1865.8,6,"left",5,"15solosesoli.png","5.png",0,"UP","SP","UP",1,0,4.34579439252336
"122",10933690,"competition","trial",1416.8,7,"left",13,"13.png","15solosesoli.png",0,"SP","UP","SP",0,0,13
"124",10933690,"competition","trial",2954.70000038147,8,"left",3,"15solosesoli.png","3.png",0,"UP","SP","UP",1,0,3.22429906542056
"126",10933690,"competition","trial",2238.2000002861,9,"left",15,"15.png","15solosesoli.png",0,"SP","UP","SP",0,0,15
"128",10933690,"competition","trial",2029.90000009537,10,"left",9,"9.png","15solosesoli.png",0,"SP","UP","SP",0,0,9
"130",10933690,"competition","trial",2273.80000038147,11,"right",11,"15solosesoli.png","11.png",0,"UP","SP","SP",0,0,11
"132",10933690,"competition","trial",1689.3,12,"right",1,"1.png","15solosesoli.png",0,"SP","UP","UP",1,NA,3.08411214953271
"134",10933690,"competition","trial",1682.9,13,"right",4,"4.png","15solosesoli.png",0,"SP","UP","UP",1,0,4.76635514018692
"136",10933690,"competition","trial",1662.60000009536,14,"right",14,"15solosesoli.png","14.png",0,"UP","SP","SP",0,0,14
"138",10933690,"competition","trial",1153,15,"right",10,"15solosesoli.png","10.png",0,"UP","SP","SP",0,0,10
"143",10933690,"coordination","trial",1470.6,1,"left",1,"15soloseinsieme.png","1.png",0,"UP","SP","UP",1,NA,11.9158878504673
"145",10933690,"coordination","trial",5056.6000002861,2,"right",12,"15soloseinsieme.png","12.png",0,"UP","SP","SP",0,0,12
"147",10933690,"coordination","trial",1443.40000009537,3,"right",11,"15soloseinsieme.png","11.png",0,"UP","SP","SP",0,0,11
"149",10933690,"coordination","trial",1454.90000038147,4,"left",6,"15soloseinsieme.png","6.png",0,"UP","SP","UP",1,0,9.25233644859813
"151",10933690,"coordination","trial",2045.2,5,"right",9,"9.png","15soloseinsieme.png",0,"SP","UP","UP",1,0,8.13084112149533
"153",10933690,"coordination","trial",1375.60000019074,6,"left",5,"15soloseinsieme.png","5.png",0,"UP","SP","UP",1,0,10.6542056074766
"155",10933690,"coordination","trial",1233.39999999999,7,"right",4,"4.png","15soloseinsieme.png",0,"SP","UP","UP",1,0,10.2336448598131
"157",10933690,"coordination","trial",1349.90000000001,8,"left",2,"15soloseinsieme.png","2.png",0,"UP","SP","UP",1,0,9.81308411214953
"159",10933690,"coordination","trial",1953.30000028611,9,"right",15,"15soloseinsieme.png","15.png",0,"UP","SP","SP",0,0,15
"161",10933690,"coordination","trial",4255.80000028611,10,"left",10,"10.png","15soloseinsieme.png",0,"SP","UP","SP",0,1,10
"163",10933690,"coordination","trial",2283.59999999999,11,"right",8,"8.png","15soloseinsieme.png",0,"SP","UP","UP",1,0,8.97196261682243
"165",10933690,"coordination","trial",1144.40000038147,12,"right",14,"15soloseinsieme.png","14.png",0,"UP","SP","SP",0,0,14
"167",10933690,"coordination","trial",1742.30000019073,13,"right",7,"7.png","15soloseinsieme.png",0,"SP","UP","UP",1,0,9.53271028037383
"169",10933690,"coordination","trial",1401.50000028611,14,"right",13,"15soloseinsieme.png","13.png",0,"UP","SP","SP",0,0,13
"171",10933690,"coordination","trial",1520.60000038147,15,"right",3,"3.png","15soloseinsieme.png",0,"SP","UP","UP",1,0,11.7757009345794
"176",10933690,"lottery","trial",3010.20000038148,1,"right",11,"11.png","15soloseacaso.png",0,"SP","UP","UP",1,1,7.5
"178",10933690,"lottery","trial",3259.20000038148,2,"left",1,"15soloseacaso.png","1.png",0,"UP","SP","UP",1,NA,7.5
"180",10933690,"lottery","trial",1343.5,3,"left",9,"15soloseacaso.png","9.png",0,"UP","SP","UP",1,0,7.5
"182",10933690,"lottery","trial",843.600000095365,4,"left",7,"15soloseacaso.png","7.png",0,"UP","SP","UP",1,0,7.5
"184",10933690,"lottery","trial",1027.8,5,"left",6,"15soloseacaso.png","6.png",0,"UP","SP","UP",1,0,7.5
"186",10933690,"lottery","trial",1556.90000019074,6,"left",15,"15.png","15soloseacaso.png",0,"SP","UP","SP",0,0,15
"188",10933690,"lottery","trial",914.10000038147,7,"left",13,"13.png","15soloseacaso.png",0,"SP","UP","SP",0,0,13
"190",10933690,"lottery","trial",2077.10000009536,8,"left",5,"15soloseacaso.png","5.png",0,"UP","SP","UP",1,0,7.5
"192",10933690,"lottery","trial",1248.20000019073,9,"left",14,"14.png","15soloseacaso.png",0,"SP","UP","SP",0,0,14
"194",10933690,"lottery","trial",1983.00000009537,10,"right",4,"4.png","15soloseacaso.png",0,"SP","UP","UP",1,0,7.5
"196",10933690,"lottery","trial",1842.10000038147,11,"right",8,"8.png","15soloseacaso.png",0,"SP","UP","UP",1,0,7.5
"198",10933690,"lottery","trial",937.400000286114,12,"right",3,"3.png","15soloseacaso.png",0,"SP","UP","UP",1,0,7.5
"200",10933690,"lottery","trial",1632.79999999999,13,"left",12,"12.png","15soloseacaso.png",0,"SP","UP","SP",0,1,12
"202",10933690,"lottery","trial",1092.40000009537,14,"left",10,"10.png","15soloseacaso.png",0,"SP","UP","SP",0,1,10
"204",10933690,"lottery","trial",1791.1000002861,15,"right",2,"2.png","15soloseacaso.png",0,"SP","UP","UP",1,0,7.5
"214",10933691,"competition","trial",4664.10000019074,1,"right",12,"15solosesoli.png","12.png",0,"UP","SP","SP",0,0,12
"216",10933691,"competition","trial",3460.60000000001,2,"left",8,"15solosesoli.png","8.png",0,"UP","SP","UP",1,1,5.88785046728972
"218",10933691,"competition","trial",3283.50000009537,3,"left",6,"6.png","15solosesoli.png",0,"SP","UP","SP",0,0,6
"220",10933691,"competition","trial",4129.90000009537,4,"left",1,"15solosesoli.png","1.png",0,"UP","SP","UP",1,NA,2.94392523364486
"222",10933691,"competition","trial",2810.39999999999,5,"left",7,"7.png","15solosesoli.png",0,"SP","UP","SP",0,0,7
"224",10933691,"competition","trial",1880.30000009536,6,"left",11,"11.png","15solosesoli.png",0,"SP","UP","SP",0,0,11
"226",10933691,"competition","trial",998.199999999997,7,"left",10,"10.png","15solosesoli.png",0,"SP","UP","SP",0,0,10
"228",10933691,"competition","trial",1096.00000019073,8,"right",9,"15solosesoli.png","9.png",0,"UP","SP","SP",0,1,9
"230",10933691,"competition","trial",1314.30000009536,9,"right",14,"15solosesoli.png","14.png",0,"UP","SP","SP",0,0,14
"232",10933691,"competition","trial",1061.39999990464,10,"right",5,"15solosesoli.png","5.png",0,"UP","SP","SP",0,0,5
"234",10933691,"competition","trial",1593.39999990464,11,"right",4,"15solosesoli.png","4.png",0,"UP","SP","SP",0,0,4
"236",10933691,"competition","trial",3039.00000009537,12,"left",15,"15.png","15solosesoli.png",0,"SP","UP","SP",0,0,15
"238",10933691,"competition","trial",1702.59999990463,13,"left",2,"2.png","15solosesoli.png",0,"SP","UP","SP",0,1,2
"240",10933691,"competition","trial",1355.50000019073,14,"left",13,"13.png","15solosesoli.png",0,"SP","UP","SP",0,0,13
"242",10933691,"competition","trial",1314.8,15,"right",3,"15solosesoli.png","3.png",0,"UP","SP","SP",0,0,3
"247",10933691,"lottery","trial",2516.39999999999,1,"right",3,"3.png","15soloseacaso.png",0,"SP","UP","UP",1,1,7.5
"249",10933691,"lottery","trial",2512.29999990463,2,"left",4,"4.png","15soloseacaso.png",0,"SP","UP","SP",0,1,4
"251",10933691,"lottery","trial",541.800000286108,3,"left",6,"6.png","15soloseacaso.png",0,"SP","UP","SP",0,0,6
"253",10933691,"lottery","trial",360.000000190732,4,"right",9,"15soloseacaso.png","9.png",0,"UP","SP","SP",0,0,9
"255",10933691,"lottery","trial",1198.80000009536,5,"right",13,"15soloseacaso.png","13.png",0,"UP","SP","SP",0,0,13
"257",10933691,"lottery","trial",1258.70000009537,6,"right",11,"11.png","15soloseacaso.png",0,"SP","UP","UP",1,1,7.5
"259",10933691,"lottery","trial",1108.1000002861,7,"right",5,"15soloseacaso.png","5.png",0,"UP","SP","SP",0,0,5
"261",10933691,"lottery","trial",569,8,"right",7,"15soloseacaso.png","7.png",0,"UP","SP","SP",0,0,7
"263",10933691,"lottery","trial",1000.00000000003,9,"left",12,"12.png","15soloseacaso.png",0,"SP","UP","SP",0,1,12
"265",10933691,"lottery","trial",583.599999999977,10,"left",10,"10.png","15soloseacaso.png",0,"SP","UP","SP",0,0,10
"267",10933691,"lottery","trial",639.199999904638,11,"left",2,"2.png","15soloseacaso.png",0,"SP","UP","SP",0,0,2
"269",10933691,"lottery","trial",582.300000095362,12,"left",1,"1.png","15soloseacaso.png",0,"SP","UP","SP",0,NA,1
"271",10933691,"lottery","trial",920.900000286114,13,"left",15,"15.png","15soloseacaso.png",0,"SP","UP","SP",0,0,15
"273",10933691,"lottery","trial",1622.1000002861,14,"right",8,"15soloseacaso.png","8.png",0,"UP","SP","SP",0,0,8
"275",10933691,"lottery","trial",1221.80000019073,15,"left",14,"14.png","15soloseacaso.png",0,"SP","UP","SP",0,0,14
"280",10933691,"coordination","trial",2383.79999999999,1,"left",4,"15soloseinsieme.png","4.png",0,"UP","SP","UP",1,1,10.2336448598131
"282",10933691,"coordination","trial",1687.7000002861,2,"right",9,"9.png","15soloseinsieme.png",0,"SP","UP","UP",1,1,8.13084112149533
"284",10933691,"coordination","trial",644.999999904627,3,"left",6,"6.png","15soloseinsieme.png",0,"SP","UP","SP",0,0,6
"286",10933691,"coordination","trial",1285.70000000001,4,"right",15,"15soloseinsieme.png","15.png",0,"UP","SP","SP",0,0,15
"288",10933691,"coordination","trial",617.200000000041,5,"right",7,"15soloseinsieme.png","7.png",0,"UP","SP","SP",0,0,7
"290",10933691,"coordination","trial",678.199999904638,6,"left",8,"8.png","15soloseinsieme.png",0,"SP","UP","SP",0,0,8
"292",10933691,"coordination","trial",585.000000095373,7,"right",12,"15soloseinsieme.png","12.png",0,"UP","SP","SP",0,0,12
"294",10933691,"coordination","trial",909.900000190741,8,"right",3,"15soloseinsieme.png","3.png",0,"UP","SP","SP",0,0,3
"296",10933691,"coordination","trial",1094.50000009537,9,"right",10,"15soloseinsieme.png","10.png",0,"UP","SP","SP",0,1,10
"298",10933691,"coordination","trial",548.500000095373,10,"right",1,"15soloseinsieme.png","1.png",0,"UP","SP","SP",0,NA,1
"300",10933691,"coordination","trial",952.600000000006,11,"right",5,"15soloseinsieme.png","5.png",0,"UP","SP","SP",0,1,5
"302",10933691,"coordination","trial",677.200000095356,12,"right",14,"15soloseinsieme.png","14.png",0,"UP","SP","SP",0,0,14
"304",10933691,"coordination","trial",677.100000095379,13,"left",2,"2.png","15soloseinsieme.png",0,"SP","UP","SP",0,0,2
"306",10933691,"coordination","trial",1800.29999999996,14,"left",13,"13.png","15soloseinsieme.png",0,"SP","UP","SP",0,0,13
"308",10933691,"coordination","trial",1201.90000028611,15,"left",11,"11.png","15soloseinsieme.png",0,"SP","UP","SP",0,0,11
"317",10933692,"coordination","trial",4776.19999990463,1,"right",9,"15soloseinsieme.png","9.png",0,"UP","SP","SP",0,1,9
"319",10933692,"coordination","trial",3115.79999995232,2,"left",8,"15soloseinsieme.png","8.png",0,"UP","SP","UP",1,1,8.97196261682243
"321",10933692,"coordination","trial",3358.89999990464,3,"left",2,"15soloseinsieme.png","2.png",0,"UP","SP","UP",1,0,9.81308411214953
"323",10933692,"coordination","trial",2265.3,4,"right",15,"15soloseinsieme.png","15.png",0,"UP","SP","SP",0,0,15
"325",10933692,"coordination","trial",11743.5999999762,5,"right",6,"15soloseinsieme.png","6.png",1,"UP","SP","SP",0,1,6
"327",10933692,"coordination","trial",2508.39999990464,6,"left",12,"12.png","15soloseinsieme.png",0,"SP","UP","SP",0,0,12
"329",10933692,"coordination","trial",1555.6,7,"left",11,"11.png","15soloseinsieme.png",0,"SP","UP","SP",0,0,11
"331",10933692,"coordination","trial",4466.7,8,"right",10,"15soloseinsieme.png","10.png",0,"UP","SP","SP",0,0,10
"333",10933692,"coordination","trial",1782.80000000002,9,"left",1,"15soloseinsieme.png","1.png",0,"UP","SP","UP",1,NA,11.9158878504673
"335",10933692,"coordination","trial",5130.89999997616,10,"right",4,"15soloseinsieme.png","4.png",0,"UP","SP","SP",0,0,4
"337",10933692,"coordination","trial",1905.39999997616,11,"left",13,"13.png","15soloseinsieme.png",0,"SP","UP","SP",0,0,13
"339",10933692,"coordination","trial",10515.7,12,"left",5,"15soloseinsieme.png","5.png",1,"UP","SP","UP",1,1,10.6542056074766
"341",10933692,"coordination","trial",8677.69999992847,13,"left",7,"7.png","15soloseinsieme.png",0,"SP","UP","SP",0,0,7
"343",10933692,"coordination","trial",1972.60000000001,14,"left",14,"14.png","15soloseinsieme.png",0,"SP","UP","SP",0,0,14
"345",10933692,"coordination","trial",7339.69999995231,15,"right",3,"15soloseinsieme.png","3.png",0,"UP","SP","SP",0,1,3
"350",10933692,"competition","trial",3357.10000000001,1,"right",3,"3.png","15solosesoli.png",0,"SP","UP","UP",1,0,3.08411214953271
"352",10933692,"competition","trial",1341.19999997616,2,"right",2,"2.png","15solosesoli.png",0,"SP","UP","UP",1,1,5.18691588785047
"354",10933692,"competition","trial",3089.79999990463,3,"right",10,"15solosesoli.png","10.png",0,"UP","SP","SP",0,0,10
"356",10933692,"competition","trial",1714.00000000003,4,"right",8,"15solosesoli.png","8.png",0,"UP","SP","SP",0,1,8
"358",10933692,"competition","trial",2758.79999995232,5,"left",14,"14.png","15solosesoli.png",0,"SP","UP","SP",0,0,14
"360",10933692,"competition","trial",11178.7999999285,6,"right",13,"15solosesoli.png","13.png",1,"UP","SP","SP",0,0,13
"362",10933692,"competition","trial",3148.69999990464,7,"right",4,"15solosesoli.png","4.png",0,"UP","SP","SP",0,1,4
"364",10933692,"competition","trial",16116.9999999285,8,"left",12,"12.png","15solosesoli.png",1,"SP","UP","SP",0,0,12
"366",10933692,"competition","trial",4351.39999999999,9,"right",11,"15solosesoli.png","11.png",0,"UP","SP","SP",0,0,11
"368",10933692,"competition","trial",3113.29999999999,10,"right",6,"15solosesoli.png","6.png",0,"UP","SP","SP",0,0,6
"370",10933692,"competition","trial",23567.8,11,"left",9,"9.png","15solosesoli.png",1,"SP","UP","SP",0,0,9
"372",10933692,"competition","trial",5753.59999997617,12,"left",7,"15solosesoli.png","7.png",0,"UP","SP","UP",1,1,5.32710280373832
"374",10933692,"competition","trial",2735.70000000001,13,"left",1,"1.png","15solosesoli.png",0,"SP","UP","SP",0,NA,1
"376",10933692,"competition","trial",8192.79999990464,14,"right",15,"15solosesoli.png","15.png",0,"UP","SP","SP",0,0,15
"378",10933692,"competition","trial",10278.6999999285,15,"right",5,"15solosesoli.png","5.png",1,"UP","SP","SP",0,0,5
"383",10933692,"lottery","trial",10835.1,1,"right",6,"15soloseacaso.png","6.png",1,"UP","SP","SP",0,0,6
"385",10933692,"lottery","trial",19680.2,2,"left",13,"13.png","15soloseacaso.png",1,"SP","UP","SP",0,0,13
"387",10933692,"lottery","trial",2860.0999999285,3,"right",3,"15soloseacaso.png","3.png",0,"UP","SP","SP",0,0,3
"389",10933692,"lottery","trial",8092.49999992846,4,"left",9,"9.png","15soloseacaso.png",0,"SP","UP","SP",0,0,9
"391",10933692,"lottery","trial",5384.99999992846,5,"right",4,"15soloseacaso.png","4.png",0,"UP","SP","SP",0,0,4
"393",10933692,"lottery","trial",2250.19999999995,6,"right",1,"15soloseacaso.png","1.png",0,"UP","SP","SP",0,NA,1
"395",10933692,"lottery","trial",4223.89999990462,7,"left",7,"7.png","15soloseacaso.png",0,"SP","UP","SP",0,0,7
"397",10933692,"lottery","trial",18668.9999999761,8,"right",12,"15soloseacaso.png","12.png",1,"UP","SP","SP",0,0,12
"399",10933692,"lottery","trial",2200.79999999993,9,"left",10,"10.png","15soloseacaso.png",0,"SP","UP","SP",0,0,10
"401",10933692,"lottery","trial",3348.09999999998,10,"left",8,"8.png","15soloseacaso.png",0,"SP","UP","SP",0,0,8
"403",10933692,"lottery","trial",3818.49999992846,11,"right",11,"15soloseacaso.png","11.png",0,"UP","SP","SP",0,0,11
"405",10933692,"lottery","trial",1727.59999997617,12,"right",2,"15soloseacaso.png","2.png",0,"UP","SP","SP",0,0,2
"407",10933692,"lottery","trial",14708.3999999762,13,"left",15,"15.png","15soloseacaso.png",1,"SP","UP","SP",0,0,15
"409",10933692,"lottery","trial",16923.3,14,"right",14,"15soloseacaso.png","14.png",1,"UP","SP","SP",0,0,14
"411",10933692,"lottery","trial",2922,15,"left",5,"5.png","15soloseacaso.png",0,"SP","UP","SP",0,0,5
"420",10933693,"lottery","trial",7528.79999990463,1,"right",12,"15soloseacaso.png","12.png",0,"UP","SP","SP",0,0,12
"422",10933693,"lottery","trial",7264.19999980927,2,"left",15,"15soloseacaso.png","15.png",0,"UP","SP","UP",1,0,7.5
"424",10933693,"lottery","trial",4545.70000019074,3,"right",3,"15soloseacaso.png","3.png",0,"UP","SP","SP",0,0,3
"426",10933693,"lottery","trial",2474.60000019074,4,"left",13,"13.png","15soloseacaso.png",0,"SP","UP","SP",0,0,13
"428",10933693,"lottery","trial",5716.59999999999,5,"left",1,"15soloseacaso.png","1.png",0,"UP","SP","UP",1,NA,7.5
"430",10933693,"lottery","trial",6888.29999980926,6,"left",9,"9.png","15soloseacaso.png",0,"SP","UP","SP",0,0,9
"432",10933693,"lottery","trial",6470.49999990463,7,"right",2,"15soloseacaso.png","2.png",0,"UP","SP","SP",0,1,2
"434",10933693,"lottery","trial",2466.3,8,"right",4,"4.png","15soloseacaso.png",0,"SP","UP","UP",1,1,7.5
"436",10933693,"lottery","trial",2555.89999990464,9,"left",5,"5.png","15soloseacaso.png",0,"SP","UP","SP",0,1,5
"438",10933693,"lottery","trial",3521.19999980927,10,"right",6,"15soloseacaso.png","6.png",0,"UP","SP","SP",0,0,6
"440",10933693,"lottery","trial",3540.40000019074,11,"right",10,"15soloseacaso.png","10.png",0,"UP","SP","SP",0,0,10
"442",10933693,"lottery","trial",2174.3,12,"left",8,"8.png","15soloseacaso.png",0,"SP","UP","SP",0,1,8
"444",10933693,"lottery","trial",3055.20000009537,13,"left",11,"11.png","15soloseacaso.png",0,"SP","UP","SP",0,0,11
"446",10933693,"lottery","trial",1843.70000019073,14,"left",14,"15soloseacaso.png","14.png",0,"UP","SP","UP",1,1,7.5
"448",10933693,"lottery","trial",2216.09999980926,15,"right",7,"7.png","15soloseacaso.png",0,"SP","UP","UP",1,1,7.5
"453",10933693,"coordination","trial",5924.10000019074,1,"left",13,"13.png","15soloseinsieme.png",0,"SP","UP","SP",0,0,13
"455",10933693,"coordination","trial",1512.29999980927,2,"left",10,"10.png","15soloseinsieme.png",0,"SP","UP","SP",0,0,10
"457",10933693,"coordination","trial",2538.29999990463,3,"left",2,"15soloseinsieme.png","2.png",0,"UP","SP","UP",1,0,9.81308411214953
"459",10933693,"coordination","trial",3969.60000000001,4,"left",15,"15.png","15soloseinsieme.png",0,"SP","UP","SP",0,0,15
"461",10933693,"coordination","trial",2720.39999999999,5,"right",14,"15soloseinsieme.png","14.png",0,"UP","SP","SP",0,0,14
"463",10933693,"coordination","trial",3368.90000009537,6,"right",5,"5.png","15soloseinsieme.png",0,"SP","UP","UP",1,1,10.6542056074766
"465",10933693,"coordination","trial",1759.79999990464,7,"right",6,"15soloseinsieme.png","6.png",0,"UP","SP","SP",0,1,6
"467",10933693,"coordination","trial",4332,8,"left",9,"9.png","15soloseinsieme.png",0,"SP","UP","SP",0,1,9
"469",10933693,"coordination","trial",1899.29999999996,9,"left",8,"15soloseinsieme.png","8.png",0,"UP","SP","UP",1,1,8.97196261682243
"471",10933693,"coordination","trial",2212.99999990463,10,"right",3,"3.png","15soloseinsieme.png",0,"SP","UP","UP",1,0,11.7757009345794
"473",10933693,"coordination","trial",1683.89999999999,11,"left",4,"4.png","15soloseinsieme.png",0,"SP","UP","SP",0,1,4
"475",10933693,"coordination","trial",1932.29999999999,12,"left",1,"15soloseinsieme.png","1.png",0,"UP","SP","UP",1,NA,11.9158878504673
"477",10933693,"coordination","trial",1837.79999980927,13,"left",12,"12.png","15soloseinsieme.png",0,"SP","UP","SP",0,0,12
"479",10933693,"coordination","trial",1607.70000019073,14,"right",11,"15soloseinsieme.png","11.png",0,"UP","SP","SP",0,0,11
"481",10933693,"coordination","trial",1247.90000019074,15,"right",7,"15soloseinsieme.png","7.png",0,"UP","SP","SP",0,0,7
"486",10933693,"competition","trial",8025.99999990463,1,"left",14,"14.png","15solosesoli.png",0,"SP","UP","SP",0,0,14
"488",10933693,"competition","trial",3595.50000019075,2,"right",8,"8.png","15solosesoli.png",0,"SP","UP","UP",1,0,6.02803738317757
"490",10933693,"competition","trial",2315.79999980927,3,"right",5,"5.png","15solosesoli.png",0,"SP","UP","UP",1,0,4.34579439252336
"492",10933693,"competition","trial",1350.10000000001,4,"right",11,"15solosesoli.png","11.png",0,"UP","SP","SP",0,0,11
"494",10933693,"competition","trial",1352.09999990463,5,"left",10,"10.png","15solosesoli.png",0,"SP","UP","SP",0,0,10
"496",10933693,"competition","trial",2371.30000009536,6,"right",9,"15solosesoli.png","9.png",0,"UP","SP","SP",0,1,9
"498",10933693,"competition","trial",1433.40000000002,7,"right",2,"2.png","15solosesoli.png",0,"SP","UP","UP",1,0,5.18691588785047
"500",10933693,"competition","trial",1691.39999999999,8,"left",3,"15solosesoli.png","3.png",0,"UP","SP","UP",1,0,3.22429906542056
"502",10933693,"competition","trial",3271.19999990464,9,"left",4,"15solosesoli.png","4.png",0,"UP","SP","UP",1,0,4.62616822429907
"504",10933693,"competition","trial",1703.89999990462,10,"right",13,"15solosesoli.png","13.png",0,"UP","SP","SP",0,0,13
"506",10933693,"competition","trial",2184.99999999997,11,"left",12,"12.png","15solosesoli.png",0,"SP","UP","SP",0,0,12
"508",10933693,"competition","trial",7966,12,"right",1,"1.png","15solosesoli.png",0,"SP","UP","UP",1,NA,3.08411214953271
"510",10933693,"competition","trial",1783.89999999999,13,"right",7,"7.png","15solosesoli.png",0,"SP","UP","UP",1,0,5.32710280373832
"512",10933693,"competition","trial",5835.20000019073,14,"right",15,"15solosesoli.png","15.png",0,"UP","SP","SP",0,0,15
"514",10933693,"competition","trial",2807.90000009537,15,"left",6,"15solosesoli.png","6.png",0,"UP","SP","UP",1,0,5.60747663551402
"523",10933697,"competition","trial",7177.70000009537,1,"right",1,"1.png","15solosesoli.png",0,"SP","UP","UP",1,NA,3.08411214953271
"525",10933697,"competition","trial",3140.79999990463,2,"right",3,"3.png","15solosesoli.png",0,"SP","UP","UP",1,1,3.22429906542056
"527",10933697,"competition","trial",4285.29999995232,3,"right",4,"15solosesoli.png","4.png",0,"UP","SP","SP",0,1,4
"529",10933697,"competition","trial",2515.9,4,"right",12,"15solosesoli.png","12.png",0,"UP","SP","SP",0,1,12
"531",10933697,"competition","trial",8803.80000009537,5,"left",8,"15solosesoli.png","8.png",0,"UP","SP","UP",1,1,6.02803738317757
"533",10933697,"competition","trial",1713.39999999999,6,"right",15,"15solosesoli.png","15.png",0,"UP","SP","SP",0,0,15
"535",10933697,"competition","trial",3599.2,7,"right",14,"15solosesoli.png","14.png",0,"UP","SP","SP",0,0,14
"537",10933697,"competition","trial",2145.50000009537,8,"left",6,"15solosesoli.png","6.png",0,"UP","SP","UP",1,0,5.74766355140187
"539",10933697,"competition","trial",1261,9,"right",7,"15solosesoli.png","7.png",0,"UP","SP","SP",0,1,7
"541",10933697,"competition","trial",2266.4,10,"left",2,"2.png","15solosesoli.png",0,"SP","UP","SP",0,1,2
"543",10933697,"competition","trial",1107.20000009537,11,"right",11,"11.png","15solosesoli.png",0,"SP","UP","UP",1,1,8.55140186915888
"545",10933697,"competition","trial",1686.7,12,"left",9,"9.png","15solosesoli.png",0,"SP","UP","SP",0,1,9
"547",10933697,"competition","trial",1569.69999995232,13,"left",5,"15solosesoli.png","5.png",0,"UP","SP","UP",1,1,4.34579439252336
"549",10933697,"competition","trial",1629.79999990463,14,"right",13,"15solosesoli.png","13.png",0,"UP","SP","SP",0,0,13
"551",10933697,"competition","trial",1931.60000009536,15,"right",10,"15solosesoli.png","10.png",0,"UP","SP","SP",0,0,10
"556",10933697,"lottery","trial",4039.50000009537,1,"left",8,"15soloseacaso.png","8.png",0,"UP","SP","UP",1,1,7.5
"558",10933697,"lottery","trial",646.5,2,"left",9,"15soloseacaso.png","9.png",0,"UP","SP","UP",1,0,7.5
"560",10933697,"lottery","trial",537.899999999994,3,"left",11,"15soloseacaso.png","11.png",0,"UP","SP","UP",1,1,7.5
"562",10933697,"lottery","trial",704.19999995231,4,"left",12,"15soloseacaso.png","12.png",0,"UP","SP","UP",1,0,7.5
"564",10933697,"lottery","trial",1113.29999990463,5,"left",1,"15soloseacaso.png","1.png",0,"UP","SP","UP",1,NA,7.5
"566",10933697,"lottery","trial",753.000000047687,6,"left",15,"15soloseacaso.png","15.png",0,"UP","SP","UP",1,0,7.5
"568",10933697,"lottery","trial",594.499999952313,7,"left",7,"7.png","15soloseacaso.png",0,"SP","UP","SP",0,1,7
"570",10933697,"lottery","trial",1142.09999995232,8,"right",10,"15soloseacaso.png","10.png",0,"UP","SP","SP",0,1,10
"572",10933697,"lottery","trial",577.400000095367,9,"left",13,"13.png","15soloseacaso.png",0,"SP","UP","SP",0,1,13
"574",10933697,"lottery","trial",576.399999952322,10,"right",2,"2.png","15soloseacaso.png",0,"SP","UP","UP",1,0,7.5
"576",10933697,"lottery","trial",423.899999999994,11,"left",6,"15soloseacaso.png","6.png",0,"UP","SP","UP",1,0,7.5
"578",10933697,"lottery","trial",1025.50000004769,12,"right",14,"14.png","15soloseacaso.png",0,"SP","UP","UP",1,1,7.5
"580",10933697,"lottery","trial",49.2999999999884,13,"right",3,"15soloseacaso.png","3.png",0,"UP","SP","SP",0,1,3
"582",10933697,"lottery","trial",995.500000047687,14,"left",4,"15soloseacaso.png","4.png",0,"UP","SP","UP",1,1,7.5
"584",10933697,"lottery","trial",1636.99999995231,15,"left",5,"15soloseacaso.png","5.png",0,"UP","SP","UP",1,0,7.5
"589",10933697,"coordination","trial",927.399999999994,1,"right",3,"3.png","15soloseinsieme.png",0,"SP","UP","UP",1,0,11.7757009345794
"591",10933697,"coordination","trial",378.500000047687,2,"right",14,"15soloseinsieme.png","14.png",0,"UP","SP","SP",0,0,14
"593",10933697,"coordination","trial",523.300000000003,3,"left",8,"15soloseinsieme.png","8.png",0,"UP","SP","UP",1,1,8.97196261682243
"595",10933697,"coordination","trial",781,4,"right",7,"15soloseinsieme.png","7.png",0,"UP","SP","SP",0,1,7
"597",10933697,"coordination","trial",1334.70000000001,5,"right",13,"15soloseinsieme.png","13.png",0,"UP","SP","SP",0,0,13
"599",10933697,"coordination","trial",1284.60000004768,6,"right",5,"5.png","15soloseinsieme.png",0,"SP","UP","UP",1,1,10.6542056074766
"601",10933697,"coordination","trial",1285.5,7,"right",11,"15soloseinsieme.png","11.png",0,"UP","SP","SP",0,1,11
"603",10933697,"coordination","trial",1130.8,8,"right",4,"15soloseinsieme.png","4.png",0,"UP","SP","SP",0,1,4
"605",10933697,"coordination","trial",747.599999952319,9,"left",2,"15soloseinsieme.png","2.png",0,"UP","SP","UP",1,0,9.81308411214953
"607",10933697,"coordination","trial",3429.70000004768,10,"left",10,"15soloseinsieme.png","10.png",0,"UP","SP","UP",1,0,6.02803738317757
"609",10933697,"coordination","trial",897.69999995231,11,"left",6,"15soloseinsieme.png","6.png",0,"UP","SP","UP",1,0,9.25233644859813
"611",10933697,"coordination","trial",3971.19999995231,12,"right",9,"9.png","15soloseinsieme.png",0,"SP","UP","UP",1,0,8.13084112149533
"613",10933697,"coordination","trial",1082.50000009537,13,"right",15,"15soloseinsieme.png","15.png",0,"UP","SP","SP",0,0,15
"615",10933697,"coordination","trial",1760.89999990462,14,"left",12,"12.png","15soloseinsieme.png",0,"SP","UP","SP",0,0,12
"617",10933697,"coordination","trial",1981.89999995232,15,"left",1,"15soloseinsieme.png","1.png",0,"UP","SP","UP",1,NA,11.9158878504673
"626",10933705,"lottery","trial",3348.40000009537,1,"right",1,"1.png","15soloseacaso.png",0,"SP","UP","UP",1,NA,7.5
"628",10933705,"lottery","trial",3839.79999980927,2,"left",15,"15soloseacaso.png","15.png",0,"UP","SP","UP",1,1,7.5
"630",10933705,"lottery","trial",2168.0999997139,3,"left",14,"14.png","15soloseacaso.png",0,"SP","UP","SP",0,0,14
"632",10933705,"lottery","trial",1025.00000009537,4,"left",7,"15soloseacaso.png","7.png",0,"UP","SP","UP",1,0,7.5
"634",10933705,"lottery","trial",1472.09999980927,5,"right",6,"6.png","15soloseacaso.png",0,"SP","UP","UP",1,0,7.5
"636",10933705,"lottery","trial",1045.39999990463,6,"left",9,"15soloseacaso.png","9.png",0,"UP","SP","UP",1,0,7.5
"638",10933705,"lottery","trial",1594.30000009537,7,"left",8,"15soloseacaso.png","8.png",0,"UP","SP","UP",1,0,7.5
"640",10933705,"lottery","trial",1189.1,8,"left",5,"15soloseacaso.png","5.png",0,"UP","SP","UP",1,0,7.5
"642",10933705,"lottery","trial",1921.89999990463,9,"left",11,"11.png","15soloseacaso.png",0,"SP","UP","SP",0,1,11
"644",10933705,"lottery","trial",730.999999809264,10,"left",12,"15soloseacaso.png","12.png",0,"UP","SP","UP",1,1,7.5
"646",10933705,"lottery","trial",1704.9,11,"right",13,"15soloseacaso.png","13.png",0,"UP","SP","SP",0,1,13
"648",10933705,"lottery","trial",1226.39999990464,12,"right",2,"2.png","15soloseacaso.png",0,"SP","UP","UP",1,0,7.5
"650",10933705,"lottery","trial",1408.4,13,"left",4,"15soloseacaso.png","4.png",0,"UP","SP","UP",1,0,7.5
"652",10933705,"lottery","trial",578.599999809267,14,"left",3,"15soloseacaso.png","3.png",0,"UP","SP","UP",1,0,7.5
"654",10933705,"lottery","trial",615.799999999996,15,"left",10,"15soloseacaso.png","10.png",0,"UP","SP","UP",1,0,7.5
"659",10933705,"coordination","trial",1038.40000009537,1,"right",2,"2.png","15soloseinsieme.png",0,"SP","UP","UP",1,0,9.81308411214953
"661",10933705,"coordination","trial",9653.00000009537,2,"left",13,"13.png","15soloseinsieme.png",1,"SP","UP","SP",0,0,13
"663",10933705,"coordination","trial",1864.7999997139,3,"right",7,"7.png","15soloseinsieme.png",0,"SP","UP","UP",1,0,9.53271028037383
"665",10933705,"coordination","trial",24277.5,4,"right",8,"15soloseinsieme.png","8.png",1,"UP","SP","SP",0,1,8
"667",10933705,"coordination","trial",1671.70000009537,5,"right",1,"1.png","15soloseinsieme.png",0,"SP","UP","UP",1,NA,11.9158878504673
"669",10933705,"coordination","trial",985.399999809262,6,"right",14,"14.png","15soloseinsieme.png",0,"SP","UP","UP",1,1,5.74766355140187
"671",10933705,"coordination","trial",827.800000095362,7,"right",9,"9.png","15soloseinsieme.png",0,"SP","UP","UP",1,1,8.13084112149533
"673",10933705,"coordination","trial",1303.40000009537,8,"left",6,"15soloseinsieme.png","6.png",0,"UP","SP","UP",1,0,9.25233644859813
"675",10933705,"coordination","trial",1212.69999971389,9,"right",11,"11.png","15soloseinsieme.png",0,"SP","UP","UP",1,0,6.30841121495327
"677",10933705,"coordination","trial",646.999999713895,10,"right",3,"3.png","15soloseinsieme.png",0,"SP","UP","UP",1,0,11.7757009345794
"679",10933705,"coordination","trial",496.600000000006,11,"right",12,"15soloseinsieme.png","12.png",0,"UP","SP","SP",0,1,12
"681",10933705,"coordination","trial",1500.5999997139,12,"right",4,"4.png","15soloseinsieme.png",0,"SP","UP","UP",1,0,10.2336448598131
"683",10933705,"coordination","trial",2389.39999999999,13,"right",15,"15soloseinsieme.png","15.png",0,"UP","SP","SP",0,1,15
"685",10933705,"coordination","trial",1439.99999990463,14,"left",5,"15soloseinsieme.png","5.png",0,"UP","SP","UP",1,0,10.6542056074766
"687",10933705,"coordination","trial",702.199999999997,15,"left",10,"15soloseinsieme.png","10.png",0,"UP","SP","UP",1,0,6.02803738317757
"692",10933705,"competition","trial",3638.89999990464,1,"right",15,"15solosesoli.png","15.png",0,"UP","SP","SP",0,0,15
"694",10933705,"competition","trial",1182.60000000001,2,"left",9,"15solosesoli.png","9.png",0,"UP","SP","UP",1,0,6.86915887850467
"696",10933705,"competition","trial",1134.8,3,"left",2,"15solosesoli.png","2.png",0,"UP","SP","UP",1,0,5.18691588785047
"698",10933705,"competition","trial",1099.3,4,"right",6,"15solosesoli.png","6.png",0,"UP","SP","SP",0,0,6
"700",10933705,"competition","trial",851.499999904627,5,"left",1,"15solosesoli.png","1.png",0,"UP","SP","UP",1,NA,3.08411214953271
"702",10933705,"competition","trial",1066.30000000002,6,"right",11,"15solosesoli.png","11.png",0,"UP","SP","SP",0,0,11
"704",10933705,"competition","trial",1466.59999980926,7,"left",14,"14.png","15solosesoli.png",0,"SP","UP","SP",0,0,14
"706",10933705,"competition","trial",1118.10000000001,8,"right",8,"8.png","15solosesoli.png",0,"SP","UP","UP",1,1,5.88785046728972
"708",10933705,"competition","trial",1996.59999990463,9,"left",12,"15solosesoli.png","12.png",0,"UP","SP","UP",1,1,9.67289719626168
"710",10933705,"competition","trial",969.400000095367,10,"right",3,"3.png","15solosesoli.png",0,"SP","UP","UP",1,0,3.22429906542056
"712",10933705,"competition","trial",1226.99999971391,11,"left",7,"7.png","15solosesoli.png",0,"SP","UP","SP",0,0,7
"714",10933705,"competition","trial",1297.10000000001,12,"left",4,"15solosesoli.png","4.png",0,"UP","SP","UP",1,0,4.76635514018692
"716",10933705,"competition","trial",715.200000095356,13,"right",10,"15solosesoli.png","10.png",0,"UP","SP","SP",0,1,10
"718",10933705,"competition","trial",3265.29999999999,14,"right",13,"15solosesoli.png","13.png",0,"UP","SP","SP",0,1,13
"720",10933705,"competition","trial",1405.49999990463,15,"left",5,"5.png","15solosesoli.png",0,"SP","UP","SP",0,1,5
"729",10933694,"lottery","trial",11590.5000000238,1,"right",1,"1.png","15soloseacaso.png",1,"SP","UP","UP",1,NA,7.5
"731",10933694,"lottery","trial",3379.60000002384,2,"left",9,"15soloseacaso.png","9.png",0,"UP","SP","UP",1,1,7.5
"733",10933694,"lottery","trial",2630.90000000001,3,"left",2,"2.png","15soloseacaso.png",0,"SP","UP","SP",0,1,2
"735",10933694,"lottery","trial",2294.79999997616,4,"right",5,"15soloseacaso.png","5.png",0,"UP","SP","SP",0,1,5
"737",10933694,"lottery","trial",2156.00000004769,5,"left",11,"11.png","15soloseacaso.png",0,"SP","UP","SP",0,0,11
"739",10933694,"lottery","trial",2360.19999997616,6,"right",14,"14.png","15soloseacaso.png",0,"SP","UP","UP",1,1,7.5
"741",10933694,"lottery","trial",2989.20000004768,7,"right",12,"15soloseacaso.png","12.png",0,"UP","SP","SP",0,0,12
"743",10933694,"lottery","trial",1731.90000002384,8,"right",10,"15soloseacaso.png","10.png",0,"UP","SP","SP",0,1,10
"745",10933694,"lottery","trial",1209.60000004769,9,"right",4,"4.png","15soloseacaso.png",0,"SP","UP","UP",1,0,7.5
"747",10933694,"lottery","trial",1614.59999995232,10,"right",6,"6.png","15soloseacaso.png",0,"SP","UP","UP",1,1,7.5
"749",10933694,"lottery","trial",2278.5,11,"right",8,"15soloseacaso.png","8.png",0,"UP","SP","SP",0,1,8
"751",10933694,"lottery","trial",2586.09999995232,12,"right",3,"3.png","15soloseacaso.png",0,"SP","UP","UP",1,1,7.5
"753",10933694,"lottery","trial",2172.69999997616,13,"right",13,"15soloseacaso.png","13.png",0,"UP","SP","SP",0,0,13
"755",10933694,"lottery","trial",2611.09999995232,14,"left",15,"15.png","15soloseacaso.png",0,"SP","UP","SP",0,1,15
"757",10933694,"lottery","trial",2038.2,15,"left",7,"15soloseacaso.png","7.png",0,"UP","SP","UP",1,0,7.5
"762",10933694,"competition","trial",2915.39999997616,1,"left",6,"6.png","15solosesoli.png",0,"SP","UP","SP",0,1,6
"764",10933694,"competition","trial",1347.70000002385,2,"right",13,"15solosesoli.png","13.png",0,"UP","SP","SP",0,0,13
"766",10933694,"competition","trial",1696.89999995232,3,"left",7,"15solosesoli.png","7.png",0,"UP","SP","UP",1,1,5.46728971962617
"768",10933694,"competition","trial",1685.39999999999,4,"right",12,"15solosesoli.png","12.png",0,"UP","SP","SP",0,0,12
"770",10933694,"competition","trial",1342.39999997616,5,"left",1,"15solosesoli.png","1.png",0,"UP","SP","UP",1,NA,3.08411214953271
"772",10933694,"competition","trial",4098.49999997616,6,"right",11,"15solosesoli.png","11.png",0,"UP","SP","SP",0,0,11
"774",10933694,"competition","trial",1947.29999995232,7,"right",15,"15solosesoli.png","15.png",0,"UP","SP","SP",0,0,15
"776",10933694,"competition","trial",2816.59999999998,8,"right",3,"3.png","15solosesoli.png",0,"SP","UP","UP",1,0,3.22429906542056
"778",10933694,"competition","trial",2274.5,9,"right",4,"15solosesoli.png","4.png",0,"UP","SP","SP",0,1,4
"780",10933694,"competition","trial",1532.90000000001,10,"right",8,"15solosesoli.png","8.png",0,"UP","SP","SP",0,1,8
"782",10933694,"competition","trial",4453.20000000001,11,"right",14,"15solosesoli.png","14.png",0,"UP","SP","SP",0,0,14
"784",10933694,"competition","trial",2492.89999995232,12,"right",5,"5.png","15solosesoli.png",0,"SP","UP","UP",1,1,4.34579439252336
"786",10933694,"competition","trial",2086.90000004768,13,"right",10,"15solosesoli.png","10.png",0,"UP","SP","SP",0,0,10
"788",10933694,"competition","trial",1854.69999997616,14,"left",9,"9.png","15solosesoli.png",0,"SP","UP","SP",0,0,9
"790",10933694,"competition","trial",3171.79999995232,15,"right",2,"2.png","15solosesoli.png",0,"SP","UP","UP",1,0,5.18691588785047
"795",10933694,"coordination","trial",2832.69999999998,1,"left",5,"15soloseinsieme.png","5.png",0,"UP","SP","UP",1,0,10.6542056074766
"797",10933694,"coordination","trial",232.299999999988,2,"left",11,"11.png","15soloseinsieme.png",0,"SP","UP","SP",0,1,11
"799",10933694,"coordination","trial",1477.09999997617,3,"left",1,"15soloseinsieme.png","1.png",0,"UP","SP","UP",1,NA,11.9158878504673
"801",10933694,"coordination","trial",1832.29999995232,4,"left",12,"12.png","15soloseinsieme.png",0,"SP","UP","SP",0,0,12
"803",10933694,"coordination","trial",1377.19999997615,5,"left",8,"8.png","15soloseinsieme.png",0,"SP","UP","SP",0,1,8
"805",10933694,"coordination","trial",1054.89999997616,6,"left",15,"15.png","15soloseinsieme.png",0,"SP","UP","SP",0,0,15
"807",10933694,"coordination","trial",3425.00000004767,7,"left",3,"15soloseinsieme.png","3.png",0,"UP","SP","UP",1,0,11.7757009345794
"809",10933694,"coordination","trial",402.09999997617,8,"left",10,"15soloseinsieme.png","10.png",0,"UP","SP","UP",1,1,6.02803738317757
"811",10933694,"coordination","trial",1292.29999995232,9,"right",13,"15soloseinsieme.png","13.png",0,"UP","SP","SP",0,0,13
"813",10933694,"coordination","trial",3187.29999995232,10,"right",7,"7.png","15soloseinsieme.png",0,"SP","UP","UP",1,0,9.53271028037383
"815",10933694,"coordination","trial",7718.80000000002,11,"left",6,"15soloseinsieme.png","6.png",0,"UP","SP","UP",1,0,9.25233644859813
"817",10933694,"coordination","trial",962.200000023848,12,"right",14,"15soloseinsieme.png","14.png",0,"UP","SP","SP",0,0,14
"819",10933694,"coordination","trial",1788.60000000001,13,"right",4,"4.png","15soloseinsieme.png",0,"SP","UP","UP",1,0,10.2336448598131
"821",10933694,"coordination","trial",1530.19999997615,14,"left",2,"15soloseinsieme.png","2.png",0,"UP","SP","UP",1,0,9.81308411214953
"823",10933694,"coordination","trial",1766.30000000002,15,"left",9,"9.png","15soloseinsieme.png",0,"SP","UP","SP",0,0,9
"832",10933700,"lottery","trial",28836.1,1,"left",1,"15soloseacaso.png","1.png",1,"UP","SP","UP",1,NA,7.5
"834",10933700,"lottery","trial",11999.1,2,"right",14,"14.png","15soloseacaso.png",1,"SP","UP","UP",1,0,7.5
"836",10933700,"lottery","trial",5862.3,3,"left",10,"10.png","15soloseacaso.png",0,"SP","UP","SP",0,1,10
"838",10933700,"lottery","trial",1996.60000004768,4,"right",13,"13.png","15soloseacaso.png",0,"SP","UP","UP",1,0,7.5
"840",10933700,"lottery","trial",753.599999856946,5,"right",6,"6.png","15soloseacaso.png",0,"SP","UP","UP",1,0,7.5
"842",10933700,"lottery","trial",1312.79999990463,6,"left",7,"15soloseacaso.png","7.png",0,"UP","SP","UP",1,0,7.5
"844",10933700,"lottery","trial",1329.99999990463,7,"right",5,"5.png","15soloseacaso.png",0,"SP","UP","UP",1,0,7.5
"846",10933700,"lottery","trial",1048.39999995232,8,"right",12,"12.png","15soloseacaso.png",0,"SP","UP","UP",1,1,7.5
"848",10933700,"lottery","trial",1377.29999985694,9,"left",4,"15soloseacaso.png","4.png",0,"UP","SP","UP",1,1,7.5
"850",10933700,"lottery","trial",1661.39999990464,10,"right",8,"15soloseacaso.png","8.png",0,"UP","SP","SP",0,1,8
"852",10933700,"lottery","trial",1625.50000004769,11,"right",9,"9.png","15soloseacaso.png",0,"SP","UP","UP",1,1,7.5
"854",10933700,"lottery","trial",1287.60000000001,12,"right",15,"15soloseacaso.png","15.png",0,"UP","SP","SP",0,1,15
"856",10933700,"lottery","trial",1194.99999995231,13,"right",2,"2.png","15soloseacaso.png",0,"SP","UP","UP",1,0,7.5
"858",10933700,"lottery","trial",1533.99999999999,14,"left",11,"11.png","15soloseacaso.png",0,"SP","UP","SP",0,0,11
"860",10933700,"lottery","trial",1492.69999995231,15,"right",3,"15soloseacaso.png","3.png",0,"UP","SP","SP",0,1,3
"865",10933700,"competition","trial",4684.89999999999,1,"right",9,"9.png","15solosesoli.png",0,"SP","UP","UP",1,0,6.86915887850467
"867",10933700,"competition","trial",2772.89999990464,2,"left",6,"6.png","15solosesoli.png",0,"SP","UP","SP",0,1,6
"869",10933700,"competition","trial",1517,3,"left",5,"15solosesoli.png","5.png",0,"UP","SP","UP",1,0,4.34579439252336
"871",10933700,"competition","trial",2326.50000004769,4,"left",7,"7.png","15solosesoli.png",0,"SP","UP","SP",0,0,7
"873",10933700,"competition","trial",1318.49999999999,5,"right",8,"8.png","15solosesoli.png",0,"SP","UP","UP",1,1,5.88785046728972
"875",10933700,"competition","trial",863.100000000006,6,"right",3,"3.png","15solosesoli.png",0,"SP","UP","UP",1,0,3.22429906542056
"877",10933700,"competition","trial",972.299999999988,7,"right",13,"13.png","15solosesoli.png",0,"SP","UP","UP",1,1,9.67289719626168
"879",10933700,"competition","trial",974.499999904627,8,"right",1,"1.png","15solosesoli.png",0,"SP","UP","UP",1,NA,3.08411214953271
"881",10933700,"competition","trial",1236.19999985694,9,"left",15,"15.png","15solosesoli.png",0,"SP","UP","SP",0,0,15
"883",10933700,"competition","trial",1115.79999999999,10,"right",12,"15solosesoli.png","12.png",0,"UP","SP","SP",0,0,12
"885",10933700,"competition","trial",1250.79999999999,11,"left",11,"11.png","15solosesoli.png",0,"SP","UP","SP",0,1,11
"887",10933700,"competition","trial",1284.80000004769,12,"left",4,"15solosesoli.png","4.png",0,"UP","SP","UP",1,0,4.76635514018692
"889",10933700,"competition","trial",1497.60000000001,13,"right",10,"10.png","15solosesoli.png",0,"SP","UP","UP",1,0,8.97196261682243
"891",10933700,"competition","trial",1495.59999990463,14,"right",2,"2.png","15solosesoli.png",0,"SP","UP","UP",1,0,5.18691588785047
"893",10933700,"competition","trial",887.400000047695,15,"right",14,"15solosesoli.png","14.png",0,"UP","SP","SP",0,1,14
"898",10933700,"coordination","trial",2268.10000000003,1,"left",4,"15soloseinsieme.png","4.png",0,"UP","SP","UP",1,0,10.2336448598131
"900",10933700,"coordination","trial",2023.79999985694,2,"left",5,"15soloseinsieme.png","5.png",0,"UP","SP","UP",1,0,10.6542056074766
"902",10933700,"coordination","trial",1228.39999995232,3,"left",11,"15soloseinsieme.png","11.png",0,"UP","SP","UP",1,0,6.30841121495327
"904",10933700,"coordination","trial",552.30000004769,4,"left",8,"8.png","15soloseinsieme.png",0,"SP","UP","SP",0,1,8
"906",10933700,"coordination","trial",1135.79999995232,5,"left",1,"15soloseinsieme.png","1.png",0,"UP","SP","UP",1,NA,11.9158878504673
"908",10933700,"coordination","trial",2299.70000000001,6,"right",14,"14.png","15soloseinsieme.png",0,"SP","UP","UP",1,0,5.74766355140187
"910",10933700,"coordination","trial",918.399999999994,7,"right",15,"15.png","15soloseinsieme.png",0,"SP","UP","UP",1,0,5.18691588785047
"912",10933700,"coordination","trial",782.999999999971,8,"right",3,"3.png","15soloseinsieme.png",0,"SP","UP","UP",1,0,11.7757009345794
"914",10933700,"coordination","trial",1981.20000000001,9,"left",13,"15soloseinsieme.png","13.png",0,"UP","SP","UP",1,0,5.32710280373832
"916",10933700,"coordination","trial",832.700000000012,10,"left",12,"15soloseinsieme.png","12.png",0,"UP","SP","UP",1,0,5.18691588785047
"918",10933700,"coordination","trial",672.899999999994,11,"left",9,"15soloseinsieme.png","9.png",0,"UP","SP","UP",1,1,8.13084112149533
"920",10933700,"coordination","trial",773.299999999988,12,"left",6,"15soloseinsieme.png","6.png",0,"UP","SP","UP",1,0,9.25233644859813
"922",10933700,"coordination","trial",1619.10000000001,13,"right",2,"2.png","15soloseinsieme.png",0,"SP","UP","UP",1,0,9.81308411214953
"924",10933700,"coordination","trial",1334.70000000004,14,"left",7,"15soloseinsieme.png","7.png",0,"UP","SP","UP",1,0,9.53271028037383
"926",10933700,"coordination","trial",772.30000004769,15,"left",10,"15soloseinsieme.png","10.png",0,"UP","SP","UP",1,0,6.02803738317757
"935",10933699,"competition","trial",5132.1,1,"right",4,"15solosesoli.png","4.png",0,"UP","SP","SP",0,0,4
"937",10933699,"competition","trial",3380.00000014305,2,"left",6,"6.png","15solosesoli.png",0,"SP","UP","SP",0,0,6
"939",10933699,"competition","trial",4493.30000014305,3,"right",15,"15solosesoli.png","15.png",0,"UP","SP","SP",0,0,15
"941",10933699,"competition","trial",2907.90000009537,4,"left",8,"8.png","15solosesoli.png",0,"SP","UP","SP",0,0,8
"943",10933699,"competition","trial",2107.60000004769,5,"left",12,"12.png","15solosesoli.png",0,"SP","UP","SP",0,0,12
"945",10933699,"competition","trial",4095.8,6,"right",2,"2.png","15solosesoli.png",0,"SP","UP","UP",1,0,5.04672897196262
"947",10933699,"competition","trial",1742.80000009537,7,"left",11,"11.png","15solosesoli.png",0,"SP","UP","SP",0,0,11
"949",10933699,"competition","trial",2818.90000014305,8,"right",14,"15solosesoli.png","14.png",0,"UP","SP","SP",0,0,14
"951",10933699,"competition","trial",2233.3,9,"left",9,"9.png","15solosesoli.png",0,"SP","UP","SP",0,0,9
"953",10933699,"competition","trial",1955.8,10,"left",7,"7.png","15solosesoli.png",0,"SP","UP","SP",0,0,7
"955",10933699,"competition","trial",1907.40000004768,11,"right",13,"15solosesoli.png","13.png",0,"UP","SP","SP",0,0,13
"957",10933699,"competition","trial",3215.20000014306,12,"right",10,"15solosesoli.png","10.png",0,"UP","SP","SP",0,0,10
"959",10933699,"competition","trial",2026.60000009536,13,"left",3,"3.png","15solosesoli.png",0,"SP","UP","SP",0,1,3
"961",10933699,"competition","trial",2146.10000000001,14,"right",1,"1.png","15solosesoli.png",0,"SP","UP","UP",1,NA,2.94392523364486
"963",10933699,"competition","trial",1322.10000014305,15,"left",5,"5.png","15solosesoli.png",0,"SP","UP","SP",0,0,5
"968",10933699,"coordination","trial",9934.30000014305,1,"right",2,"15soloseinsieme.png","2.png",1,"UP","SP","SP",0,0,2
"970",10933699,"coordination","trial",1207.00000004769,2,"right",4,"15soloseinsieme.png","4.png",0,"UP","SP","SP",0,0,4
"972",10933699,"coordination","trial",1750.70000000001,3,"left",12,"12.png","15soloseinsieme.png",0,"SP","UP","SP",0,0,12
"974",10933699,"coordination","trial",1499.20000014306,4,"left",3,"3.png","15soloseinsieme.png",0,"SP","UP","SP",0,0,3
"976",10933699,"coordination","trial",778.199999999997,5,"left",6,"6.png","15soloseinsieme.png",0,"SP","UP","SP",0,0,6
"978",10933699,"coordination","trial",1492.20000019073,6,"right",15,"15soloseinsieme.png","15.png",0,"UP","SP","SP",0,0,15
"980",10933699,"coordination","trial",1266.60000014305,7,"left",9,"9.png","15soloseinsieme.png",0,"SP","UP","SP",0,0,9
"982",10933699,"coordination","trial",987.200000190729,8,"right",1,"15soloseinsieme.png","1.png",0,"UP","SP","SP",0,NA,1
"984",10933699,"coordination","trial",1158.00000014305,9,"left",14,"14.png","15soloseinsieme.png",0,"SP","UP","SP",0,0,14
"986",10933699,"coordination","trial",1266.3,10,"left",7,"7.png","15soloseinsieme.png",0,"SP","UP","SP",0,0,7
"988",10933699,"coordination","trial",1237.20000019073,11,"right",8,"15soloseinsieme.png","8.png",0,"UP","SP","SP",0,0,8
"990",10933699,"coordination","trial",1239,12,"left",13,"13.png","15soloseinsieme.png",0,"SP","UP","SP",0,0,13
"992",10933699,"coordination","trial",932.900000095367,13,"right",10,"15soloseinsieme.png","10.png",0,"UP","SP","SP",0,0,10
"994",10933699,"coordination","trial",1238.10000000001,14,"left",11,"11.png","15soloseinsieme.png",0,"SP","UP","SP",0,0,11
"996",10933699,"coordination","trial",1188.5,15,"left",5,"5.png","15soloseinsieme.png",0,"SP","UP","SP",0,0,5
"1001",10933699,"lottery","trial",3233.29999999999,1,"right",4,"15soloseacaso.png","4.png",0,"UP","SP","SP",0,0,4
"1003",10933699,"lottery","trial",773.399999999994,2,"right",15,"15soloseacaso.png","15.png",0,"UP","SP","SP",0,0,15
"1005",10933699,"lottery","trial",1805.10000019072,3,"left",2,"2.png","15soloseacaso.png",0,"SP","UP","SP",0,0,2
"1007",10933699,"lottery","trial",1211.00000019075,4,"right",13,"15soloseacaso.png","13.png",0,"UP","SP","SP",0,0,13
"1009",10933699,"lottery","trial",2118.69999999998,5,"right",10,"15soloseacaso.png","10.png",0,"UP","SP","SP",0,0,10
"1011",10933699,"lottery","trial",680.000000095373,6,"right",7,"15soloseacaso.png","7.png",0,"UP","SP","SP",0,0,7
"1013",10933699,"lottery","trial",1478.90000009537,7,"left",8,"8.png","15soloseacaso.png",0,"SP","UP","SP",0,0,8
"1015",10933699,"lottery","trial",1077.10000019072,8,"left",9,"9.png","15soloseacaso.png",0,"SP","UP","SP",0,0,9
"1017",10933699,"lottery","trial",1165.00000019075,9,"right",1,"15soloseacaso.png","1.png",0,"UP","SP","SP",0,NA,1
"1019",10933699,"lottery","trial",1481.20000000001,10,"right",11,"15soloseacaso.png","11.png",0,"UP","SP","SP",0,0,11
"1021",10933699,"lottery","trial",1176.20000004768,11,"right",6,"15soloseacaso.png","6.png",0,"UP","SP","SP",0,0,6
"1023",10933699,"lottery","trial",2420.10000004768,12,"left",12,"12.png","15soloseacaso.png",0,"SP","UP","SP",0,0,12
"1025",10933699,"lottery","trial",1794.80000014306,13,"left",5,"5.png","15soloseacaso.png",0,"SP","UP","SP",0,0,5
"1027",10933699,"lottery","trial",760.100000143051,14,"left",3,"3.png","15soloseacaso.png",0,"SP","UP","SP",0,0,3
"1029",10933699,"lottery","trial",1151.80000014306,15,"left",14,"14.png","15soloseacaso.png",0,"SP","UP","SP",0,0,14
"1038",10933696,"lottery","trial",4589.39999980926,1,"right",2,"2.png","15soloseacaso.png",0,"SP","UP","UP",1,1,7.5
"1040",10933696,"lottery","trial",4566.7,2,"right",14,"15soloseacaso.png","14.png",0,"UP","SP","SP",0,1,14
"1042",10933696,"lottery","trial",3252.1,3,"right",15,"15soloseacaso.png","15.png",0,"UP","SP","SP",0,0,15
"1044",10933696,"lottery","trial",3546.69999980927,4,"left",1,"1.png","15soloseacaso.png",0,"SP","UP","SP",0,NA,1
"1046",10933696,"lottery","trial",2451.49999990463,5,"left",5,"15soloseacaso.png","5.png",0,"UP","SP","UP",1,0,7.5
"1048",10933696,"lottery","trial",1990.2,6,"right",9,"15soloseacaso.png","9.png",0,"UP","SP","SP",0,0,9
"1050",10933696,"lottery","trial",2109.49999980927,7,"left",8,"8.png","15soloseacaso.png",0,"SP","UP","SP",0,1,8
"1052",10933696,"lottery","trial",1704.79999980927,8,"left",4,"15soloseacaso.png","4.png",0,"UP","SP","UP",1,1,7.5
"1054",10933696,"lottery","trial",705.399999952322,9,"left",12,"12.png","15soloseacaso.png",0,"SP","UP","SP",0,1,12
"1056",10933696,"lottery","trial",2442.99999990463,10,"right",6,"6.png","15soloseacaso.png",0,"SP","UP","UP",1,0,7.5
"1058",10933696,"lottery","trial",3148.39999999998,11,"left",10,"10.png","15soloseacaso.png",0,"SP","UP","SP",0,0,10
"1060",10933696,"lottery","trial",2950.99999990463,12,"left",13,"15soloseacaso.png","13.png",0,"UP","SP","UP",1,1,7.5
"1062",10933696,"lottery","trial",1364.59999985695,13,"right",7,"7.png","15soloseacaso.png",0,"SP","UP","UP",1,0,7.5
"1064",10933696,"lottery","trial",1997.09999980926,14,"right",11,"11.png","15soloseacaso.png",0,"SP","UP","UP",1,1,7.5
"1066",10933696,"lottery","trial",1258.7,15,"left",3,"3.png","15soloseacaso.png",0,"SP","UP","SP",0,1,3
"1071",10933696,"competition","trial",3852.39999999999,1,"right",15,"15solosesoli.png","15.png",0,"UP","SP","SP",0,0,15
"1073",10933696,"competition","trial",2353.49999995231,2,"left",6,"6.png","15solosesoli.png",0,"SP","UP","SP",0,1,6
"1075",10933696,"competition","trial",1192.99999985695,3,"right",4,"4.png","15solosesoli.png",0,"SP","UP","UP",1,0,4.76635514018692
"1077",10933696,"competition","trial",1422.59999995232,4,"left",13,"13.png","15solosesoli.png",0,"SP","UP","SP",0,0,13
"1079",10933696,"competition","trial",1481.8,5,"left",14,"14.png","15solosesoli.png",0,"SP","UP","SP",0,0,14
"1081",10933696,"competition","trial",3943.39999995232,6,"left",9,"15solosesoli.png","9.png",0,"UP","SP","UP",1,1,6.72897196261682
"1083",10933696,"competition","trial",1514.99999990463,7,"right",8,"15solosesoli.png","8.png",0,"UP","SP","SP",0,1,8
"1085",10933696,"competition","trial",1193.89999980928,8,"left",11,"11.png","15solosesoli.png",0,"SP","UP","SP",0,1,11
"1087",10933696,"competition","trial",1662.49999990463,9,"left",5,"15solosesoli.png","5.png",0,"UP","SP","UP",1,0,4.34579439252336
"1089",10933696,"competition","trial",321.799999856943,10,"left",10,"15solosesoli.png","10.png",0,"UP","SP","UP",1,0,8.83177570093458
"1091",10933696,"competition","trial",1522.29999985694,11,"left",7,"15solosesoli.png","7.png",0,"UP","SP","UP",1,1,5.32710280373832
"1093",10933696,"competition","trial",1818.70000000001,12,"right",12,"15solosesoli.png","12.png",0,"UP","SP","SP",0,0,12
"1095",10933696,"competition","trial",3914.99999980925,13,"left",3,"15solosesoli.png","3.png",0,"UP","SP","UP",1,0,3.22429906542056
"1097",10933696,"competition","trial",1332.89999999999,14,"right",1,"1.png","15solosesoli.png",0,"SP","UP","UP",1,NA,3.08411214953271
"1099",10933696,"competition","trial",2572.89999995232,15,"left",2,"15solosesoli.png","2.png",0,"UP","SP","UP",1,0,5.04672897196262
"1104",10933696,"coordination","trial",2816.5,1,"right",11,"11.png","15soloseinsieme.png",0,"SP","UP","UP",1,1,6.30841121495327
"1106",10933696,"coordination","trial",1532.89999999999,2,"right",2,"15soloseinsieme.png","2.png",0,"UP","SP","SP",0,1,2
"1108",10933696,"coordination","trial",1049.60000000001,3,"left",10,"10.png","15soloseinsieme.png",0,"SP","UP","SP",0,0,10
"1110",10933696,"coordination","trial",1380.5999999523,4,"right",7,"15soloseinsieme.png","7.png",0,"UP","SP","SP",0,1,7
"1112",10933696,"coordination","trial",1288.79999995232,5,"left",14,"14.png","15soloseinsieme.png",0,"SP","UP","SP",0,0,14
"1114",10933696,"coordination","trial",1149.20000000001,6,"right",8,"15soloseinsieme.png","8.png",0,"UP","SP","SP",0,0,8
"1116",10933696,"coordination","trial",1778.09999990463,7,"right",15,"15soloseinsieme.png","15.png",0,"UP","SP","SP",0,0,15
"1118",10933696,"coordination","trial",1397.29999980927,8,"right",9,"15soloseinsieme.png","9.png",0,"UP","SP","SP",0,0,9
"1120",10933696,"coordination","trial",1813.89999985695,9,"left",6,"15soloseinsieme.png","6.png",0,"UP","SP","UP",1,0,9.25233644859813
"1122",10933696,"coordination","trial",1369.39999995232,10,"left",1,"15soloseinsieme.png","1.png",0,"UP","SP","UP",1,NA,11.9158878504673
"1124",10933696,"coordination","trial",1337.19999990464,11,"right",4,"4.png","15soloseinsieme.png",0,"SP","UP","UP",1,0,10.2336448598131
"1126",10933696,"coordination","trial",1898.59999980926,12,"right",13,"15soloseinsieme.png","13.png",0,"UP","SP","SP",0,0,13
"1128",10933696,"coordination","trial",1136.59999990463,13,"right",3,"3.png","15soloseinsieme.png",0,"SP","UP","UP",1,1,11.7757009345794
"1130",10933696,"coordination","trial",2007.69999980927,14,"right",12,"15soloseinsieme.png","12.png",0,"UP","SP","SP",0,1,12
"1132",10933696,"coordination","trial",1539.79999980927,15,"left",5,"15soloseinsieme.png","5.png",0,"UP","SP","UP",1,0,10.6542056074766
"1141",10933701,"competition","trial",6083.19999999999,1,"left",6,"6.png","15solosesoli.png",0,"SP","UP","SP",0,0,6
"1143",10933701,"competition","trial",6955.3000002861,2,"left",7,"15solosesoli.png","7.png",0,"UP","SP","UP",1,1,5.46728971962617
"1145",10933701,"competition","trial",4036.79999990463,3,"left",8,"15solosesoli.png","8.png",0,"UP","SP","UP",1,0,6.02803738317757
"1147",10933701,"competition","trial",1493.2000002861,4,"left",5,"5.png","15solosesoli.png",0,"SP","UP","SP",0,0,5
"1149",10933701,"competition","trial",2600.8,5,"left",9,"9.png","15solosesoli.png",0,"SP","UP","SP",0,1,9
"1151",10933701,"competition","trial",1610.30000019073,6,"right",3,"15solosesoli.png","3.png",0,"UP","SP","SP",0,0,3
"1153",10933701,"competition","trial",2760.90000009537,7,"right",2,"15solosesoli.png","2.png",0,"UP","SP","SP",0,0,2
"1155",10933701,"competition","trial",3493.2,8,"left",10,"15solosesoli.png","10.png",0,"UP","SP","UP",1,1,8.97196261682243
"1157",10933701,"competition","trial",4949.00000028611,9,"right",15,"15.png","15solosesoli.png",0,"SP","UP","UP",1,1,9.67289719626168
"1159",10933701,"competition","trial",4916.39999999999,10,"right",4,"15solosesoli.png","4.png",0,"UP","SP","SP",0,0,4
"1161",10933701,"competition","trial",2897.49999990463,11,"left",13,"15solosesoli.png","13.png",0,"UP","SP","UP",1,1,9.53271028037383
"1163",10933701,"competition","trial",3225.10000000001,12,"left",11,"11.png","15solosesoli.png",0,"SP","UP","SP",0,1,11
"1165",10933701,"competition","trial",2201.3,13,"right",14,"15solosesoli.png","14.png",0,"UP","SP","SP",0,1,14
"1167",10933701,"competition","trial",1627.40000009537,14,"left",1,"1.png","15solosesoli.png",0,"SP","UP","SP",0,NA,1
"1169",10933701,"competition","trial",1522.20000009537,15,"left",12,"12.png","15solosesoli.png",0,"SP","UP","SP",0,0,12
"1174",10933701,"lottery","trial",4587.40000009537,1,"left",14,"14.png","15soloseacaso.png",0,"SP","UP","SP",0,0,14
"1176",10933701,"lottery","trial",1500,2,"left",5,"15soloseacaso.png","5.png",0,"UP","SP","UP",1,0,7.5
"1178",10933701,"lottery","trial",984.199999904638,3,"right",15,"15.png","15soloseacaso.png",0,"SP","UP","UP",1,1,7.5
"1180",10933701,"lottery","trial",1559.60000000001,4,"right",10,"15soloseacaso.png","10.png",0,"UP","SP","SP",0,1,10
"1182",10933701,"lottery","trial",1514.80000019073,5,"left",9,"15soloseacaso.png","9.png",0,"UP","SP","UP",1,1,7.5
"1184",10933701,"lottery","trial",2215.59999990463,6,"left",1,"1.png","15soloseacaso.png",0,"SP","UP","SP",0,NA,1
"1186",10933701,"lottery","trial",1115.90000009537,7,"left",4,"15soloseacaso.png","4.png",0,"UP","SP","UP",1,1,7.5
"1188",10933701,"lottery","trial",1049.40000000001,8,"right",12,"15soloseacaso.png","12.png",0,"UP","SP","SP",0,0,12
"1190",10933701,"lottery","trial",1321.00000028611,9,"right",8,"15soloseacaso.png","8.png",0,"UP","SP","SP",0,0,8
"1192",10933701,"lottery","trial",885.699999999997,10,"right",6,"15soloseacaso.png","6.png",0,"UP","SP","SP",0,1,6
"1194",10933701,"lottery","trial",931.000000095373,11,"right",11,"15soloseacaso.png","11.png",0,"UP","SP","SP",0,0,11
"1196",10933701,"lottery","trial",2633.39999990464,12,"left",7,"7.png","15soloseacaso.png",0,"SP","UP","SP",0,0,7
"1198",10933701,"lottery","trial",1462.90000019074,13,"left",2,"2.png","15soloseacaso.png",0,"SP","UP","SP",0,0,2
"1200",10933701,"lottery","trial",1622.39999999999,14,"right",3,"15soloseacaso.png","3.png",0,"UP","SP","SP",0,0,3
"1202",10933701,"lottery","trial",2330.60000019072,15,"right",13,"15soloseacaso.png","13.png",0,"UP","SP","SP",0,0,13
"1207",10933701,"coordination","trial",1931.40000000002,1,"left",11,"15soloseinsieme.png","11.png",0,"UP","SP","UP",1,0,6.30841121495327
"1209",10933701,"coordination","trial",1191.79999990464,2,"right",6,"6.png","15soloseinsieme.png",0,"SP","UP","UP",1,1,9.25233644859813
"1211",10933701,"coordination","trial",1024.10000000001,3,"right",10,"10.png","15soloseinsieme.png",0,"SP","UP","UP",1,0,6.02803738317757
"1213",10933701,"coordination","trial",1895.79999999999,4,"right",3,"15soloseinsieme.png","3.png",0,"UP","SP","SP",0,1,3
"1215",10933701,"coordination","trial",3880.99999990463,5,"right",2,"2.png","15soloseinsieme.png",0,"SP","UP","UP",1,1,9.81308411214953
"1217",10933701,"coordination","trial",2079.60000019072,6,"left",8,"15soloseinsieme.png","8.png",0,"UP","SP","UP",1,0,8.97196261682243
"1219",10933701,"coordination","trial",1621.30000028611,7,"left",7,"15soloseinsieme.png","7.png",0,"UP","SP","UP",1,0,9.53271028037383
"1221",10933701,"coordination","trial",1613.59999990463,8,"right",9,"9.png","15soloseinsieme.png",0,"SP","UP","UP",1,0,8.13084112149533
"1223",10933701,"coordination","trial",3500.10000000001,9,"left",1,"1.png","15soloseinsieme.png",0,"SP","UP","SP",0,NA,1
"1225",10933701,"coordination","trial",1512.60000019072,10,"left",5,"5.png","15soloseinsieme.png",0,"SP","UP","SP",0,0,5
"1227",10933701,"coordination","trial",1244.80000009536,11,"left",15,"15.png","15soloseinsieme.png",0,"SP","UP","SP",0,0,15
"1229",10933701,"coordination","trial",1744.70000009536,12,"right",13,"15soloseinsieme.png","13.png",0,"UP","SP","SP",0,0,13
"1231",10933701,"coordination","trial",2910.40000009537,13,"left",4,"4.png","15soloseinsieme.png",0,"SP","UP","SP",0,0,4
"1233",10933701,"coordination","trial",1916.10000000001,14,"left",14,"14.png","15soloseinsieme.png",0,"SP","UP","SP",0,0,14
"1235",10933701,"coordination","trial",1040.5,15,"left",12,"12.png","15soloseinsieme.png",0,"SP","UP","SP",0,1,12
"1244",10933698,"coordination","trial",8348.4,1,"left",4,"4.png","15soloseinsieme.png",0,"SP","UP","SP",0,1,4
"1246",10933698,"coordination","trial",2678.09999990463,2,"left",15,"15soloseinsieme.png","15.png",0,"UP","SP","UP",1,0,5.18691588785047
"1248",10933698,"coordination","trial",4607.60000004769,3,"right",1,"15soloseinsieme.png","1.png",0,"UP","SP","SP",0,NA,1
"1250",10933698,"coordination","trial",2349.9,4,"left",6,"6.png","15soloseinsieme.png",0,"SP","UP","SP",0,0,6
"1252",10933698,"coordination","trial",3111.49999995231,5,"right",9,"15soloseinsieme.png","9.png",0,"UP","SP","SP",0,0,9
"1254",10933698,"coordination","trial",1124.3,6,"right",14,"14.png","15soloseinsieme.png",0,"SP","UP","UP",1,0,5.74766355140187
"1256",10933698,"coordination","trial",1811.1,7,"right",3,"3.png","15soloseinsieme.png",0,"SP","UP","UP",1,1,11.7757009345794
"1258",10933698,"coordination","trial",1183.2,8,"right",5,"15soloseinsieme.png","5.png",0,"UP","SP","SP",0,0,5
"1260",10933698,"coordination","trial",1144.39999990464,9,"right",12,"15soloseinsieme.png","12.png",0,"UP","SP","SP",0,0,12
"1262",10933698,"coordination","trial",1064.49999995231,10,"right",7,"15soloseinsieme.png","7.png",0,"UP","SP","SP",0,0,7
"1264",10933698,"coordination","trial",1949.39999999999,11,"right",13,"13.png","15soloseinsieme.png",0,"SP","UP","UP",1,1,5.32710280373832
"1266",10933698,"coordination","trial",1877.40000004768,12,"left",11,"11.png","15soloseinsieme.png",0,"SP","UP","SP",0,0,11
"1268",10933698,"coordination","trial",2640.7,13,"right",2,"15soloseinsieme.png","2.png",0,"UP","SP","SP",0,0,2
"1270",10933698,"coordination","trial",1196.6,14,"right",8,"15soloseinsieme.png","8.png",0,"UP","SP","SP",0,0,8
"1272",10933698,"coordination","trial",1199.2,15,"right",10,"15soloseinsieme.png","10.png",0,"UP","SP","SP",0,0,10
"1277",10933698,"lottery","trial",6495.80000004768,1,"right",2,"15soloseacaso.png","2.png",0,"UP","SP","SP",0,0,2
"1279",10933698,"lottery","trial",1449.89999999998,2,"right",9,"9.png","15soloseacaso.png",0,"SP","UP","UP",1,1,7.5
"1281",10933698,"lottery","trial",4449.90000000001,3,"right",12,"12.png","15soloseacaso.png",0,"SP","UP","UP",1,1,7.5
"1283",10933698,"lottery","trial",2079.70000009537,4,"right",4,"15soloseacaso.png","4.png",0,"UP","SP","SP",0,1,4
"1285",10933698,"lottery","trial",3010.79999995232,5,"right",14,"15soloseacaso.png","14.png",0,"UP","SP","SP",0,0,14
"1287",10933698,"lottery","trial",2928.90000004768,6,"right",10,"15soloseacaso.png","10.png",0,"UP","SP","SP",0,1,10
"1289",10933698,"lottery","trial",1488.90000004768,7,"right",6,"6.png","15soloseacaso.png",0,"SP","UP","UP",1,1,7.5
"1291",10933698,"lottery","trial",1930.59999995232,8,"left",5,"5.png","15soloseacaso.png",0,"SP","UP","SP",0,0,5
"1293",10933698,"lottery","trial",1541.90000009537,9,"right",7,"15soloseacaso.png","7.png",0,"UP","SP","SP",0,1,7
"1295",10933698,"lottery","trial",1609.79999990463,10,"left",8,"8.png","15soloseacaso.png",0,"SP","UP","SP",0,0,8
"1297",10933698,"lottery","trial",1122.29999990463,11,"left",3,"15soloseacaso.png","3.png",0,"UP","SP","UP",1,1,7.5
"1299",10933698,"lottery","trial",1614.39999999999,12,"right",13,"15soloseacaso.png","13.png",0,"UP","SP","SP",0,1,13
"1301",10933698,"lottery","trial",1593.69999990464,13,"left",11,"11.png","15soloseacaso.png",0,"SP","UP","SP",0,0,11
"1303",10933698,"lottery","trial",1255.89999995232,14,"right",15,"15soloseacaso.png","15.png",0,"UP","SP","SP",0,0,15
"1305",10933698,"lottery","trial",1472.80000009536,15,"left",1,"1.png","15soloseacaso.png",0,"SP","UP","SP",0,NA,1
"1310",10933698,"competition","trial",5539.7,1,"left",6,"15solosesoli.png","6.png",0,"UP","SP","UP",1,1,5.60747663551402
"1312",10933698,"competition","trial",1305.49999990463,2,"right",3,"15solosesoli.png","3.png",0,"UP","SP","SP",0,1,3
"1314",10933698,"competition","trial",839.599999904633,3,"right",4,"4.png","15solosesoli.png",0,"SP","UP","UP",1,1,4.62616822429907
"1316",10933698,"competition","trial",750.69999995231,4,"right",1,"1.png","15solosesoli.png",0,"SP","UP","UP",1,NA,2.94392523364486
"1318",10933698,"competition","trial",3284.59999999999,5,"left",15,"15.png","15solosesoli.png",0,"SP","UP","SP",0,0,15
"1320",10933698,"competition","trial",1384,6,"right",12,"15solosesoli.png","12.png",0,"UP","SP","SP",0,0,12
"1322",10933698,"competition","trial",1422.19999990464,7,"right",8,"15solosesoli.png","8.png",0,"UP","SP","SP",0,1,8
"1324",10933698,"competition","trial",1584.7,8,"left",5,"5.png","15solosesoli.png",0,"SP","UP","SP",0,1,5
"1326",10933698,"competition","trial",1325.60000000001,9,"right",9,"15solosesoli.png","9.png",0,"UP","SP","SP",0,0,9
"1328",10933698,"competition","trial",847.099999952305,10,"right",10,"15solosesoli.png","10.png",0,"UP","SP","SP",0,0,10
"1330",10933698,"competition","trial",1298.5999999523,11,"left",13,"13.png","15solosesoli.png",0,"SP","UP","SP",0,0,13
"1332",10933698,"competition","trial",1179.19999990464,12,"left",14,"14.png","15solosesoli.png",0,"SP","UP","SP",0,0,14
"1334",10933698,"competition","trial",1657.39999990462,13,"left",11,"11.png","15solosesoli.png",0,"SP","UP","SP",0,0,11
"1336",10933698,"competition","trial",2327.70000009536,14,"left",2,"15solosesoli.png","2.png",0,"UP","SP","UP",1,0,5.04672897196262
"1338",10933698,"competition","trial",3817.29999990464,15,"right",7,"7.png","15solosesoli.png",0,"SP","UP","UP",1,0,5.32710280373832
"1347",10933703,"coordination","trial",7362.50000004768,1,"left",4,"4.png","15soloseinsieme.png",0,"SP","UP","SP",0,1,4
"1349",10933703,"coordination","trial",6325,2,"right",14,"15soloseinsieme.png","14.png",0,"UP","SP","SP",0,0,14
"1351",10933703,"coordination","trial",3633.8,3,"right",6,"6.png","15soloseinsieme.png",0,"SP","UP","UP",1,0,9.25233644859813
"1353",10933703,"coordination","trial",2632.00000009537,4,"left",2,"2.png","15soloseinsieme.png",0,"SP","UP","SP",0,1,2
"1355",10933703,"coordination","trial",2207.8,5,"right",8,"15soloseinsieme.png","8.png",0,"UP","SP","SP",0,0,8
"1357",10933703,"coordination","trial",2399.8,6,"left",12,"12.png","15soloseinsieme.png",0,"SP","UP","SP",0,0,12
"1359",10933703,"coordination","trial",2163.50000007152,7,"right",1,"1.png","15soloseinsieme.png",0,"SP","UP","UP",1,NA,11.9158878504673
"1361",10933703,"coordination","trial",1952.1,8,"left",7,"7.png","15soloseinsieme.png",0,"SP","UP","SP",0,1,7
"1363",10933703,"coordination","trial",1087.10000007153,9,"left",10,"10.png","15soloseinsieme.png",0,"SP","UP","SP",0,1,10
"1365",10933703,"coordination","trial",1387.00000002384,10,"left",15,"15.png","15soloseinsieme.png",0,"SP","UP","SP",0,0,15
"1367",10933703,"coordination","trial",2387.90000007152,11,"right",5,"5.png","15soloseinsieme.png",0,"SP","UP","UP",1,1,10.6542056074766
"1369",10933703,"coordination","trial",2909.50000007152,12,"right",13,"15soloseinsieme.png","13.png",0,"UP","SP","SP",0,0,13
"1371",10933703,"coordination","trial",2032.30000009536,13,"right",3,"3.png","15soloseinsieme.png",0,"SP","UP","UP",1,1,11.7757009345794
"1373",10933703,"coordination","trial",1720.20000009537,14,"right",11,"15soloseinsieme.png","11.png",0,"UP","SP","SP",0,0,11
"1375",10933703,"coordination","trial",2345.30000009536,15,"left",9,"15soloseinsieme.png","9.png",0,"UP","SP","UP",1,1,8.13084112149533
"1380",10933703,"competition","trial",7601.59999999999,1,"left",12,"15solosesoli.png","12.png",0,"UP","SP","UP",1,1,9.67289719626168
"1382",10933703,"competition","trial",1878.89999999999,2,"right",6,"15solosesoli.png","6.png",0,"UP","SP","SP",0,1,6
"1384",10933703,"competition","trial",936.300000095362,3,"right",9,"15solosesoli.png","9.png",0,"UP","SP","SP",0,0,9
"1386",10933703,"competition","trial",817.599999999991,4,"right",10,"15solosesoli.png","10.png",0,"UP","SP","SP",0,0,10
"1388",10933703,"competition","trial",949.000000000015,5,"right",15,"15solosesoli.png","15.png",0,"UP","SP","SP",0,0,15
"1390",10933703,"competition","trial",3439.00000002384,6,"right",5,"5.png","15solosesoli.png",0,"SP","UP","UP",1,1,4.34579439252336
"1392",10933703,"competition","trial",1515.70000004768,7,"right",2,"2.png","15solosesoli.png",0,"SP","UP","UP",1,1,5.04672897196262
"1394",10933703,"competition","trial",3472.8,8,"right",1,"15solosesoli.png","1.png",0,"UP","SP","SP",0,NA,1
"1396",10933703,"competition","trial",1473,9,"right",7,"15solosesoli.png","7.png",0,"UP","SP","SP",0,0,7
"1398",10933703,"competition","trial",1928.40000007153,10,"left",11,"11.png","15solosesoli.png",0,"SP","UP","SP",0,0,11
"1400",10933703,"competition","trial",1888.50000007152,11,"right",3,"3.png","15solosesoli.png",0,"SP","UP","UP",1,0,3.22429906542056
"1402",10933703,"competition","trial",1893.60000009536,12,"right",8,"15solosesoli.png","8.png",0,"UP","SP","SP",0,0,8
"1404",10933703,"competition","trial",1760.40000002384,13,"left",4,"4.png","15solosesoli.png",0,"SP","UP","SP",0,1,4
"1406",10933703,"competition","trial",1800.00000000001,14,"right",14,"15solosesoli.png","14.png",0,"UP","SP","SP",0,0,14
"1408",10933703,"competition","trial",1799.20000004768,15,"left",13,"13.png","15solosesoli.png",0,"SP","UP","SP",0,1,13
"1413",10933703,"lottery","trial",3801.60000009538,1,"left",8,"8.png","15soloseacaso.png",0,"SP","UP","SP",0,1,8
"1415",10933703,"lottery","trial",1604.70000004768,2,"left",10,"15soloseacaso.png","10.png",0,"UP","SP","UP",1,1,7.5
"1417",10933703,"lottery","trial",3639.80000009536,3,"right",7,"7.png","15soloseacaso.png",0,"SP","UP","UP",1,1,7.5
"1419",10933703,"lottery","trial",1486.20000002385,4,"right",12,"12.png","15soloseacaso.png",0,"SP","UP","UP",1,1,7.5
"1421",10933703,"lottery","trial",1671.70000007152,5,"right",4,"15soloseacaso.png","4.png",0,"UP","SP","SP",0,1,4
"1423",10933703,"lottery","trial",1579.9000000477,6,"left",9,"9.png","15soloseacaso.png",0,"SP","UP","SP",0,0,9
"1425",10933703,"lottery","trial",1281.50000004767,7,"left",15,"15.png","15soloseacaso.png",0,"SP","UP","SP",0,0,15
"1427",10933703,"lottery","trial",2830.20000009536,8,"right",5,"5.png","15soloseacaso.png",0,"SP","UP","UP",1,1,7.5
"1429",10933703,"lottery","trial",1668.20000002385,9,"right",11,"15soloseacaso.png","11.png",0,"UP","SP","SP",0,1,11
"1431",10933703,"lottery","trial",1808.60000007151,10,"left",3,"15soloseacaso.png","3.png",0,"UP","SP","UP",1,0,7.5
"1433",10933703,"lottery","trial",1364.10000009538,11,"left",6,"6.png","15soloseacaso.png",0,"SP","UP","SP",0,1,6
"1435",10933703,"lottery","trial",2129.30000002385,12,"left",2,"15soloseacaso.png","2.png",0,"UP","SP","UP",1,0,7.5
"1437",10933703,"lottery","trial",1463.30000009536,13,"left",14,"14.png","15soloseacaso.png",0,"SP","UP","SP",0,0,14
"1439",10933703,"lottery","trial",2638.10000000001,14,"right",13,"15soloseacaso.png","13.png",0,"UP","SP","SP",0,1,13
"1441",10933703,"lottery","trial",1192.60000004768,15,"right",1,"1.png","15soloseacaso.png",0,"SP","UP","UP",1,NA,7.5
"1450",10933695,"lottery","trial",4224.99999980927,1,"left",9,"9.png","15soloseacaso.png",0,"SP","UP","SP",0,1,9
"1452",10933695,"lottery","trial",6483.69999980927,2,"left",15,"15soloseacaso.png","15.png",0,"UP","SP","UP",1,1,7.5
"1454",10933695,"lottery","trial",4871.29999980927,3,"right",3,"15soloseacaso.png","3.png",0,"UP","SP","SP",0,1,3
"1456",10933695,"lottery","trial",1654.39999999999,4,"left",7,"7.png","15soloseacaso.png",0,"SP","UP","SP",0,0,7
"1458",10933695,"lottery","trial",1373.10000009536,5,"right",8,"8.png","15soloseacaso.png",0,"SP","UP","UP",1,1,7.5
"1460",10933695,"lottery","trial",2965.00000009537,6,"left",5,"15soloseacaso.png","5.png",0,"UP","SP","UP",1,1,7.5
"1462",10933695,"lottery","trial",1580.39999980926,7,"right",1,"1.png","15soloseacaso.png",0,"SP","UP","UP",1,NA,7.5
"1464",10933695,"lottery","trial",1601.99999990463,8,"left",12,"12.png","15soloseacaso.png",0,"SP","UP","SP",0,0,12
"1466",10933695,"lottery","trial",2261.0999997139,9,"right",11,"15soloseacaso.png","11.png",0,"UP","SP","SP",0,1,11
"1468",10933695,"lottery","trial",4496.10000000001,10,"right",6,"15soloseacaso.png","6.png",0,"UP","SP","SP",0,1,6
"1470",10933695,"lottery","trial",2704.19999980927,11,"left",10,"15soloseacaso.png","10.png",0,"UP","SP","UP",1,1,7.5
"1472",10933695,"lottery","trial",1157.29999990463,12,"right",4,"15soloseacaso.png","4.png",0,"UP","SP","SP",0,0,4
"1474",10933695,"lottery","trial",1148.79999990463,13,"left",14,"14.png","15soloseacaso.png",0,"SP","UP","SP",0,0,14
"1476",10933695,"lottery","trial",961.899999904635,14,"left",2,"15soloseacaso.png","2.png",0,"UP","SP","UP",1,0,7.5
"1478",10933695,"lottery","trial",2512.10000000001,15,"right",13,"15soloseacaso.png","13.png",0,"UP","SP","SP",0,0,13
"1483",10933695,"competition","trial",5797.2999997139,1,"left",14,"14.png","15solosesoli.png",0,"SP","UP","SP",0,1,14
"1485",10933695,"competition","trial",1821.19999971389,2,"right",8,"15solosesoli.png","8.png",0,"UP","SP","SP",0,1,8
"1487",10933695,"competition","trial",1796.19999990464,3,"right",1,"1.png","15solosesoli.png",0,"SP","UP","UP",1,NA,2.94392523364486
"1489",10933695,"competition","trial",3171.60000009536,4,"left",3,"15solosesoli.png","3.png",0,"UP","SP","UP",1,1,3.08411214953271
"1491",10933695,"competition","trial",1224.19999980927,5,"right",15,"15.png","15solosesoli.png",0,"SP","UP","UP",1,1,9.81308411214953
"1493",10933695,"competition","trial",719.099999809259,6,"left",5,"5.png","15solosesoli.png",0,"SP","UP","SP",0,1,5
"1495",10933695,"competition","trial",1190.79999990464,7,"right",9,"15solosesoli.png","9.png",0,"UP","SP","SP",0,0,9
"1497",10933695,"competition","trial",1176.10000009538,8,"left",13,"15solosesoli.png","13.png",0,"UP","SP","UP",1,1,9.53271028037383
"1499",10933695,"competition","trial",829.299999713898,9,"left",6,"15solosesoli.png","6.png",0,"UP","SP","UP",1,1,5.74766355140187
"1501",10933695,"competition","trial",1092.59999990463,10,"left",2,"2.png","15solosesoli.png",0,"SP","UP","SP",0,1,2
"1503",10933695,"competition","trial",875.999999713909,11,"right",11,"11.png","15solosesoli.png",0,"SP","UP","UP",1,0,8.55140186915888
"1505",10933695,"competition","trial",919.399999999994,12,"left",4,"15solosesoli.png","4.png",0,"UP","SP","UP",1,0,4.62616822429907
"1507",10933695,"competition","trial",884.399999999994,13,"right",7,"7.png","15solosesoli.png",0,"SP","UP","UP",1,0,5.32710280373832
"1509",10933695,"competition","trial",880.199999904638,14,"left",10,"15solosesoli.png","10.png",0,"UP","SP","UP",1,1,8.97196261682243
"1511",10933695,"competition","trial",866.199999904638,15,"right",12,"15solosesoli.png","12.png",0,"UP","SP","SP",0,1,12
"1516",10933695,"coordination","trial",1201.20000000001,1,"left",14,"15soloseinsieme.png","14.png",0,"UP","SP","UP",1,1,5.74766355140187
"1518",10933695,"coordination","trial",3298.49999971391,2,"left",11,"11.png","15soloseinsieme.png",0,"SP","UP","SP",0,1,11
"1520",10933695,"coordination","trial",1164.99999971391,3,"right",9,"9.png","15soloseinsieme.png",0,"SP","UP","UP",1,1,8.13084112149533
"1522",10933695,"coordination","trial",732.799999809271,4,"left",2,"2.png","15soloseinsieme.png",0,"SP","UP","SP",0,0,2
"1524",10933695,"coordination","trial",1539.80000009536,5,"right",7,"15soloseinsieme.png","7.png",0,"UP","SP","SP",0,1,7
"1526",10933695,"coordination","trial",2064.69999971389,6,"right",4,"15soloseinsieme.png","4.png",0,"UP","SP","SP",0,0,4
"1528",10933695,"coordination","trial",1864.69999971389,7,"left",8,"8.png","15soloseinsieme.png",0,"SP","UP","SP",0,0,8
"1530",10933695,"coordination","trial",8363.79999990464,8,"right",6,"6.png","15soloseinsieme.png",0,"SP","UP","UP",1,0,9.25233644859813
"1532",10933695,"coordination","trial",1047.09999980926,9,"right",13,"15soloseinsieme.png","13.png",0,"UP","SP","SP",0,1,13
"1534",10933695,"coordination","trial",515.899999809277,10,"right",1,"15soloseinsieme.png","1.png",0,"UP","SP","SP",0,NA,1
"1536",10933695,"coordination","trial",1482.10000000001,11,"right",15,"15.png","15soloseinsieme.png",0,"SP","UP","UP",1,0,5.18691588785047
"1538",10933695,"coordination","trial",616.5,12,"right",3,"15soloseinsieme.png","3.png",0,"UP","SP","SP",0,0,3
"1540",10933695,"coordination","trial",760.699999713892,13,"left",12,"15soloseinsieme.png","12.png",0,"UP","SP","UP",1,1,5.18691588785047
"1542",10933695,"coordination","trial",1284.20000009536,14,"left",5,"15soloseinsieme.png","5.png",0,"UP","SP","UP",1,1,10.6542056074766
"1544",10933695,"coordination","trial",689.399999999994,15,"right",10,"10.png","15soloseinsieme.png",0,"SP","UP","UP",1,0,6.02803738317757
"1553",10933702,"competition","trial",5819.90000019073,1,"right",14,"14.png","15solosesoli.png",0,"SP","UP","UP",1,1,9.25233644859813
"1555",10933702,"competition","trial",6659.90000009537,2,"left",13,"13.png","15solosesoli.png",0,"SP","UP","SP",0,0,13
"1557",10933702,"competition","trial",4244.9,3,"left",4,"15solosesoli.png","4.png",0,"UP","SP","UP",1,0,4.62616822429907
"1559",10933702,"competition","trial",3050.5,4,"right",1,"1.png","15solosesoli.png",0,"SP","UP","UP",1,NA,3.08411214953271
"1561",10933702,"competition","trial",2198.99999999999,5,"left",2,"15solosesoli.png","2.png",0,"UP","SP","UP",1,0,5.04672897196262
"1563",10933702,"competition","trial",1019.60000004769,6,"left",6,"15solosesoli.png","6.png",0,"UP","SP","UP",1,1,5.60747663551402
"1565",10933702,"competition","trial",1486.00000004769,7,"right",11,"11.png","15solosesoli.png",0,"SP","UP","UP",1,0,8.69158878504673
"1567",10933702,"competition","trial",768.400000190733,8,"right",3,"3.png","15solosesoli.png",0,"SP","UP","UP",1,0,3.22429906542056
"1569",10933702,"competition","trial",1333.80000004768,9,"left",7,"15solosesoli.png","7.png",0,"UP","SP","UP",1,0,5.46728971962617
"1571",10933702,"competition","trial",730.600000190738,10,"left",15,"15solosesoli.png","15.png",0,"UP","SP","UP",1,0,9.67289719626168
"1573",10933702,"competition","trial",602.199999999997,11,"left",5,"5.png","15solosesoli.png",0,"SP","UP","SP",0,1,5
"1575",10933702,"competition","trial",2584.40000004768,12,"right",12,"15solosesoli.png","12.png",0,"UP","SP","SP",0,1,12
"1577",10933702,"competition","trial",611.400000143054,13,"right",10,"10.png","15solosesoli.png",0,"SP","UP","UP",1,1,8.97196261682243
"1579",10933702,"competition","trial",1040.20000014305,14,"left",8,"8.png","15solosesoli.png",0,"SP","UP","SP",0,1,8
"1581",10933702,"competition","trial",2701.40000019074,15,"left",9,"9.png","15solosesoli.png",0,"SP","UP","SP",0,0,9
"1586",10933702,"coordination","trial",5215.70000009537,1,"left",8,"15soloseinsieme.png","8.png",0,"UP","SP","UP",1,0,8.97196261682243
"1588",10933702,"coordination","trial",1611.40000014305,2,"left",9,"15soloseinsieme.png","9.png",0,"UP","SP","UP",1,0,8.13084112149533
"1590",10933702,"coordination","trial",2344.70000009537,3,"right",1,"1.png","15soloseinsieme.png",0,"SP","UP","UP",1,NA,11.9158878504673
"1592",10933702,"coordination","trial",906.900000047681,4,"right",14,"14.png","15soloseinsieme.png",0,"SP","UP","UP",1,1,5.74766355140187
"1594",10933702,"coordination","trial",1022.60000019074,5,"right",12,"12.png","15soloseinsieme.png",0,"SP","UP","UP",1,0,5.18691588785047
"1596",10933702,"coordination","trial",2557.89999999999,6,"right",15,"15soloseinsieme.png","15.png",0,"UP","SP","SP",0,1,15
"1598",10933702,"coordination","trial",1862.70000004768,7,"right",13,"15soloseinsieme.png","13.png",0,"UP","SP","SP",0,1,13
"1600",10933702,"coordination","trial",1461.80000014305,8,"right",4,"15soloseinsieme.png","4.png",0,"UP","SP","SP",0,1,4
"1602",10933702,"coordination","trial",1414.90000004768,9,"right",2,"15soloseinsieme.png","2.png",0,"UP","SP","SP",0,1,2
"1604",10933702,"coordination","trial",1450.3,10,"right",7,"7.png","15soloseinsieme.png",0,"SP","UP","UP",1,1,9.53271028037383
"1606",10933702,"coordination","trial",1744.40000014305,11,"left",3,"15soloseinsieme.png","3.png",0,"UP","SP","UP",1,1,11.7757009345794
"1608",10933702,"coordination","trial",1601.39999999999,12,"right",11,"11.png","15soloseinsieme.png",0,"SP","UP","UP",1,0,6.30841121495327
"1610",10933702,"coordination","trial",1575.60000004768,13,"left",5,"15soloseinsieme.png","5.png",0,"UP","SP","UP",1,1,10.6542056074766
"1612",10933702,"coordination","trial",950.300000190735,14,"right",6,"15soloseinsieme.png","6.png",0,"UP","SP","SP",0,1,6
"1614",10933702,"coordination","trial",2709.50000009537,15,"right",10,"10.png","15soloseinsieme.png",0,"SP","UP","UP",1,0,6.02803738317757
"1619",10933702,"lottery","trial",1647.00000009537,1,"right",11,"11.png","15soloseacaso.png",0,"SP","UP","UP",1,1,7.5
"1621",10933702,"lottery","trial",1470.10000009536,2,"left",14,"14.png","15soloseacaso.png",0,"SP","UP","SP",0,1,14
"1623",10933702,"lottery","trial",863.800000143048,3,"left",15,"15soloseacaso.png","15.png",0,"UP","SP","UP",1,1,7.5
"1625",10933702,"lottery","trial",2096.60000009536,4,"right",2,"2.png","15soloseacaso.png",0,"SP","UP","UP",1,0,7.5
"1627",10933702,"lottery","trial",572.700000190729,5,"right",10,"15soloseacaso.png","10.png",0,"UP","SP","SP",0,0,10
"1629",10933702,"lottery","trial",594.400000095367,6,"right",6,"6.png","15soloseacaso.png",0,"SP","UP","UP",1,1,7.5
"1631",10933702,"lottery","trial",827.600000190738,7,"right",7,"7.png","15soloseacaso.png",0,"SP","UP","UP",1,0,7.5
"1633",10933702,"lottery","trial",593,8,"left",5,"5.png","15soloseacaso.png",0,"SP","UP","SP",0,0,5
"1635",10933702,"lottery","trial",640.100000190723,9,"right",13,"13.png","15soloseacaso.png",0,"SP","UP","UP",1,0,7.5
"1637",10933702,"lottery","trial",288.500000095373,10,"left",12,"15soloseacaso.png","12.png",0,"UP","SP","UP",1,0,7.5
"1639",10933702,"lottery","trial",504.800000095362,11,"right",4,"15soloseacaso.png","4.png",0,"UP","SP","SP",0,1,4
"1641",10933702,"lottery","trial",240.100000047678,12,"left",8,"15soloseacaso.png","8.png",0,"UP","SP","UP",1,0,7.5
"1643",10933702,"lottery","trial",425.800000143063,13,"left",3,"15soloseacaso.png","3.png",0,"UP","SP","UP",1,0,7.5
"1645",10933702,"lottery","trial",1399.39999999997,14,"right",9,"15soloseacaso.png","9.png",0,"UP","SP","SP",0,1,9
"1647",10933702,"lottery","trial",1600.39999999999,15,"left",1,"15soloseacaso.png","1.png",0,"UP","SP","UP",1,NA,7.5
"1656",10933704,"coordination","trial",3959.9999997139,1,"right",4,"15soloseinsieme.png","4.png",0,"UP","SP","SP",0,1,4
"1658",10933704,"coordination","trial",3262.29999980926,2,"right",13,"15soloseinsieme.png","13.png",0,"UP","SP","SP",0,0,13
"1660",10933704,"coordination","trial",2463.39999980927,3,"left",8,"15soloseinsieme.png","8.png",0,"UP","SP","UP",1,1,8.97196261682243
"1662",10933704,"coordination","trial",4846.7,4,"right",3,"3.png","15soloseinsieme.png",0,"SP","UP","UP",1,1,11.7757009345794
"1664",10933704,"coordination","trial",1950.1,5,"right",5,"15soloseinsieme.png","5.png",0,"UP","SP","SP",0,0,5
"1666",10933704,"coordination","trial",1502.2,6,"right",10,"15soloseinsieme.png","10.png",0,"UP","SP","SP",0,0,10
"1668",10933704,"coordination","trial",4337.50000009537,7,"right",7,"15soloseinsieme.png","7.png",0,"UP","SP","SP",0,1,7
"1670",10933704,"coordination","trial",5397.59999990463,8,"left",14,"14.png","15soloseinsieme.png",0,"SP","UP","SP",0,0,14
"1672",10933704,"coordination","trial",3929.19999990463,9,"left",11,"15soloseinsieme.png","11.png",0,"UP","SP","UP",1,1,6.30841121495327
"1674",10933704,"coordination","trial",5188.19999980927,10,"right",6,"6.png","15soloseinsieme.png",0,"SP","UP","UP",1,1,9.25233644859813
"1676",10933704,"coordination","trial",2547.1,11,"right",12,"15soloseinsieme.png","12.png",0,"UP","SP","SP",0,1,12
"1678",10933704,"coordination","trial",1870.2999997139,12,"right",2,"15soloseinsieme.png","2.png",0,"UP","SP","SP",0,1,2
"1680",10933704,"coordination","trial",2868.29999980927,13,"right",1,"1.png","15soloseinsieme.png",0,"SP","UP","UP",1,NA,11.9158878504673
"1682",10933704,"coordination","trial",4478.20000009537,14,"right",15,"15soloseinsieme.png","15.png",0,"UP","SP","SP",0,0,15
"1684",10933704,"coordination","trial",1666.3,15,"right",9,"15soloseinsieme.png","9.png",0,"UP","SP","SP",0,1,9
"1689",10933704,"competition","trial",2491.80000009536,1,"right",10,"10.png","15solosesoli.png",0,"SP","UP","UP",1,0,8.83177570093458
"1691",10933704,"competition","trial",1461.2,2,"left",3,"3.png","15solosesoli.png",0,"SP","UP","SP",0,1,3
"1693",10933704,"competition","trial",1155.00000009537,3,"left",12,"12.png","15solosesoli.png",0,"SP","UP","SP",0,0,12
"1695",10933704,"competition","trial",1652.30000009536,4,"left",14,"14.png","15solosesoli.png",0,"SP","UP","SP",0,0,14
"1697",10933704,"competition","trial",2436.89999980926,5,"right",9,"9.png","15solosesoli.png",0,"SP","UP","UP",1,1,6.72897196261682
"1699",10933704,"competition","trial",3871.19999971389,6,"left",8,"8.png","15solosesoli.png",0,"SP","UP","SP",0,0,8
"1701",10933704,"competition","trial",1972.79999980927,7,"left",7,"7.png","15solosesoli.png",0,"SP","UP","SP",0,1,7
"1703",10933704,"competition","trial",1578.7999997139,8,"right",15,"15solosesoli.png","15.png",0,"UP","SP","SP",0,0,15
"1705",10933704,"competition","trial",1169.10000000001,9,"left",13,"13.png","15solosesoli.png",0,"SP","UP","SP",0,0,13
"1707",10933704,"competition","trial",1979.70000009537,10,"right",4,"15solosesoli.png","4.png",0,"UP","SP","SP",0,0,4
"1709",10933704,"competition","trial",1538.69999971389,11,"right",2,"2.png","15solosesoli.png",0,"SP","UP","UP",1,0,5.04672897196262
"1711",10933704,"competition","trial",1421.10000009536,12,"left",1,"15solosesoli.png","1.png",0,"UP","SP","UP",1,NA,3.08411214953271
"1713",10933704,"competition","trial",1960.29999980927,13,"right",5,"15solosesoli.png","5.png",0,"UP","SP","SP",0,0,5
"1715",10933704,"competition","trial",1185.80000009536,14,"left",6,"15solosesoli.png","6.png",0,"UP","SP","UP",1,1,5.74766355140187
"1717",10933704,"competition","trial",1451.5,15,"right",11,"15solosesoli.png","11.png",0,"UP","SP","SP",0,1,11
"1722",10933704,"lottery","trial",4764.09999980926,1,"left",4,"15soloseacaso.png","4.png",0,"UP","SP","UP",1,0,7.5
"1724",10933704,"lottery","trial",1563.89999980928,2,"left",6,"6.png","15soloseacaso.png",0,"SP","UP","SP",0,0,6
"1726",10933704,"lottery","trial",1899.09999999998,3,"right",9,"9.png","15soloseacaso.png",0,"SP","UP","UP",1,0,7.5
"1728",10933704,"lottery","trial",1262.80000009536,4,"left",2,"15soloseacaso.png","2.png",0,"UP","SP","UP",1,0,7.5
"1730",10933704,"lottery","trial",1376.5,5,"right",13,"15soloseacaso.png","13.png",0,"UP","SP","SP",0,1,13
"1732",10933704,"lottery","trial",1665.39999980928,6,"left",1,"15soloseacaso.png","1.png",0,"UP","SP","UP",1,NA,7.5
"1734",10933704,"lottery","trial",2798.7999997139,7,"right",8,"8.png","15soloseacaso.png",0,"SP","UP","UP",1,1,7.5
"1736",10933704,"lottery","trial",941.599999809259,8,"left",5,"5.png","15soloseacaso.png",0,"SP","UP","SP",0,1,5
"1738",10933704,"lottery","trial",1514.39999980928,9,"left",15,"15.png","15soloseacaso.png",0,"SP","UP","SP",0,0,15
"1740",10933704,"lottery","trial",1214.5,10,"right",14,"15soloseacaso.png","14.png",0,"UP","SP","SP",0,0,14
"1742",10933704,"lottery","trial",1699.70000000001,11,"left",12,"15soloseacaso.png","12.png",0,"UP","SP","UP",1,0,7.5
"1744",10933704,"lottery","trial",1306.2999997139,12,"right",7,"15soloseacaso.png","7.png",0,"UP","SP","SP",0,0,7
"1746",10933704,"lottery","trial",2027.3999997139,13,"left",3,"15soloseacaso.png","3.png",0,"UP","SP","UP",1,0,7.5
"1748",10933704,"lottery","trial",2048.19999980927,14,"right",10,"15soloseacaso.png","10.png",0,"UP","SP","SP",0,1,10
"1750",10933704,"lottery","trial",1931.79999990464,15,"right",11,"11.png","15soloseacaso.png",0,"SP","UP","UP",1,1,7.5
"1759",10933888,"competition","trial",8117.6,1,"left",8,"15solosesoli.png","8.png",0,"UP","SP","UP",1,0,5.88785046728972
"1761",10933888,"competition","trial",2013.19999990463,2,"left",2,"15solosesoli.png","2.png",0,"UP","SP","UP",1,0,5.04672897196262
"1763",10933888,"competition","trial",2765.49999990463,3,"right",11,"11.png","15solosesoli.png",0,"SP","UP","UP",1,0,8.55140186915888
"1765",10933888,"competition","trial",1245.7999997139,4,"right",6,"6.png","15solosesoli.png",0,"SP","UP","UP",1,0,5.60747663551402
"1767",10933888,"competition","trial",2317.7,5,"left",4,"15solosesoli.png","4.png",0,"UP","SP","UP",1,0,4.62616822429907
"1769",10933888,"competition","trial",1564.69999980927,6,"right",5,"5.png","15solosesoli.png",0,"SP","UP","UP",1,0,4.20560747663551
"1771",10933888,"competition","trial",1282.59999980927,7,"right",14,"14.png","15solosesoli.png",0,"SP","UP","UP",1,0,9.11214953271028
"1773",10933888,"competition","trial",3591.8,8,"right",15,"15.png","15solosesoli.png",0,"SP","UP","UP",1,0,9.67289719626168
"1775",10933888,"competition","trial",5103.99999990463,9,"left",7,"15solosesoli.png","7.png",0,"UP","SP","UP",1,0,5.32710280373832
"1777",10933888,"competition","trial",1371.39999990464,10,"left",10,"15solosesoli.png","10.png",0,"UP","SP","UP",1,0,8.83177570093458
"1779",10933888,"competition","trial",877.599999713901,11,"left",3,"15solosesoli.png","3.png",0,"UP","SP","UP",1,0,3.08411214953271
"1781",10933888,"competition","trial",1830.5,12,"right",12,"12.png","15solosesoli.png",0,"SP","UP","UP",1,0,9.67289719626168
"1783",10933888,"competition","trial",3001.6,13,"left",13,"15solosesoli.png","13.png",0,"UP","SP","UP",1,0,9.53271028037383
"1785",10933888,"competition","trial",19.0999998092666,14,"left",1,"15solosesoli.png","1.png",0,"UP","SP","UP",1,NA,2.94392523364486
"1787",10933888,"competition","trial",1266.3,15,"left",9,"15solosesoli.png","9.png",0,"UP","SP","UP",1,0,6.72897196261682
"1792",10933888,"coordination","trial",7774.4,1,"right",8,"15soloseinsieme.png","8.png",0,"UP","SP","SP",0,0,8
"1794",10933888,"coordination","trial",1833.69999990464,2,"right",15,"15soloseinsieme.png","15.png",0,"UP","SP","SP",0,0,15
"1796",10933888,"coordination","trial",3482.5,3,"left",3,"3.png","15soloseinsieme.png",0,"SP","UP","SP",0,0,3
"1798",10933888,"coordination","trial",1929.29999980927,4,"right",12,"15soloseinsieme.png","12.png",0,"UP","SP","SP",0,0,12
"1800",10933888,"coordination","trial",1898.69999980927,5,"right",13,"15soloseinsieme.png","13.png",0,"UP","SP","SP",0,0,13
"1802",10933888,"coordination","trial",1653.89999980926,6,"right",7,"15soloseinsieme.png","7.png",0,"UP","SP","SP",0,0,7
"1804",10933888,"coordination","trial",2284.50000000001,7,"left",5,"5.png","15soloseinsieme.png",0,"SP","UP","SP",0,0,5
"1806",10933888,"coordination","trial",1650.19999999998,8,"left",6,"6.png","15soloseinsieme.png",0,"SP","UP","SP",0,0,6
"1808",10933888,"coordination","trial",1765.60000009536,9,"right",10,"15soloseinsieme.png","10.png",0,"UP","SP","SP",0,0,10
"1810",10933888,"coordination","trial",1309.7999997139,10,"right",9,"15soloseinsieme.png","9.png",0,"UP","SP","SP",0,0,9
"1812",10933888,"coordination","trial",1894.29999990463,11,"left",11,"11.png","15soloseinsieme.png",0,"SP","UP","SP",0,0,11
"1814",10933888,"coordination","trial",2499.39999990464,12,"right",14,"15soloseinsieme.png","14.png",0,"UP","SP","SP",0,0,14
"1816",10933888,"coordination","trial",381.599999809259,13,"right",2,"15soloseinsieme.png","2.png",0,"UP","SP","SP",0,0,2
"1818",10933888,"coordination","trial",1017.10000000001,14,"right",4,"15soloseinsieme.png","4.png",0,"UP","SP","SP",0,0,4
"1820",10933888,"coordination","trial",832.800000000003,15,"right",1,"15soloseinsieme.png","1.png",0,"UP","SP","SP",0,NA,1
"1825",10933888,"lottery","trial",3412.5,1,"right",9,"9.png","15soloseacaso.png",0,"SP","UP","UP",1,0,7.5
"1827",10933888,"lottery","trial",2531.39999980926,2,"left",2,"15soloseacaso.png","2.png",0,"UP","SP","UP",1,0,7.5
"1829",10933888,"lottery","trial",1639.70000009537,3,"left",12,"15soloseacaso.png","12.png",0,"UP","SP","UP",1,0,7.5
"1831",10933888,"lottery","trial",2994.89999980926,4,"right",3,"3.png","15soloseacaso.png",0,"SP","UP","UP",1,0,7.5
"1833",10933888,"lottery","trial",3229.40000009537,5,"left",11,"15soloseacaso.png","11.png",0,"UP","SP","UP",1,0,7.5
"1835",10933888,"lottery","trial",2460.80000009536,6,"right",6,"6.png","15soloseacaso.png",0,"SP","UP","UP",1,0,7.5
"1837",10933888,"lottery","trial",1439.39999999999,7,"right",13,"13.png","15soloseacaso.png",0,"SP","UP","UP",1,0,7.5
"1839",10933888,"lottery","trial",681.79999990463,8,"right",7,"7.png","15soloseacaso.png",0,"SP","UP","UP",1,0,7.5
"1841",10933888,"lottery","trial",1309.09999990463,9,"right",10,"10.png","15soloseacaso.png",0,"SP","UP","UP",1,0,7.5
"1843",10933888,"lottery","trial",261.199999809265,10,"right",15,"15soloseacaso.png","15.png",0,"UP","SP","SP",0,1,15
"1845",10933888,"lottery","trial",2420.60000009536,11,"left",4,"15soloseacaso.png","4.png",0,"UP","SP","UP",1,0,7.5
"1847",10933888,"lottery","trial",773.399999904621,12,"left",5,"15soloseacaso.png","5.png",0,"UP","SP","UP",1,0,7.5
"1849",10933888,"lottery","trial",1885.5,13,"right",14,"14.png","15soloseacaso.png",0,"SP","UP","UP",1,0,7.5
"1851",10933888,"lottery","trial",1078.19999980927,14,"right",1,"1.png","15soloseacaso.png",0,"SP","UP","UP",1,NA,7.5
"1853",10933888,"lottery","trial",670.099999904633,15,"right",8,"8.png","15soloseacaso.png",0,"SP","UP","UP",1,0,7.5
"1862",10933882,"lottery","trial",7263.6,1,"left",4,"15soloseacaso.png","4.png",0,"UP","SP","UP",1,0,7.5
"1864",10933882,"lottery","trial",4018.40000019073,2,"left",5,"15soloseacaso.png","5.png",0,"UP","SP","UP",1,0,7.5
"1866",10933882,"lottery","trial",6909.0000002861,3,"left",9,"9.png","15soloseacaso.png",0,"SP","UP","SP",0,0,9
"1868",10933882,"lottery","trial",1850.4,4,"left",13,"13.png","15soloseacaso.png",0,"SP","UP","SP",0,0,13
"1870",10933882,"lottery","trial",2106.40000038147,5,"left",1,"15soloseacaso.png","1.png",0,"UP","SP","UP",1,NA,7.5
"1872",10933882,"lottery","trial",2622.10000009536,6,"right",15,"15soloseacaso.png","15.png",0,"UP","SP","SP",0,0,15
"1874",10933882,"lottery","trial",5114.90000009537,7,"right",8,"15soloseacaso.png","8.png",0,"UP","SP","SP",0,1,8
"1876",10933882,"lottery","trial",1998.70000019074,8,"left",14,"14.png","15soloseacaso.png",0,"SP","UP","SP",0,0,14
"1878",10933882,"lottery","trial",2054.8,9,"right",3,"3.png","15soloseacaso.png",0,"SP","UP","UP",1,0,7.5
"1880",10933882,"lottery","trial",4455.00000009537,10,"right",10,"10.png","15soloseacaso.png",0,"SP","UP","UP",1,1,7.5
"1882",10933882,"lottery","trial",1429.60000019074,11,"right",6,"6.png","15soloseacaso.png",0,"SP","UP","UP",1,0,7.5
"1884",10933882,"lottery","trial",1017.8,12,"right",7,"7.png","15soloseacaso.png",0,"SP","UP","UP",1,0,7.5
"1886",10933882,"lottery","trial",1784.10000000001,13,"right",11,"15soloseacaso.png","11.png",0,"UP","SP","SP",0,1,11
"1888",10933882,"lottery","trial",1464.50000009537,14,"left",2,"15soloseacaso.png","2.png",0,"UP","SP","UP",1,0,7.5
"1890",10933882,"lottery","trial",1913.40000038147,15,"left",12,"12.png","15soloseacaso.png",0,"SP","UP","SP",0,0,12
"1895",10933882,"coordination","trial",6540.60000038147,1,"right",9,"9.png","15soloseinsieme.png",0,"SP","UP","UP",1,0,8.13084112149533
